#
# Results on Tue, 18 Mar 2025 13:31:02 GMT
# USER AGENT: Mozilla/5.0 (Windows NT 10.0; Win64; x64) AppleWebKit/537.36 (KHTML, like Gecko) Chrome/134.0.0.0 Safari/537.36
# Design number was non-random = 3
#
# Columns below this comment are as follows:
# 1. Results reception time.
# 2. MD5 hash of participant's IP address.
# 3. Controller name.
# 4. Order number of item.
# 5. Inner element number.
# 6. Label.
# 7. Latin Square Group.
# 8. PennElementType.
# 9. PennElementName.
# 10. Parameter.
# 11. Value.
# 12. EventTime.
# 13. Subject.
# 14. age.
# 15. Comments.
1742304662,abda418378729d84a1a46fe1f54043bc,PennController,1,0,Prolific-ID,NULL,PennController,0,_Trial_,Start,1742304279409,648899,undefined,NULL
1742304662,abda418378729d84a1a46fe1f54043bc,PennController,1,0,Prolific-ID,NULL,PennController,0,_Header_,Start,1742304279409,648899,undefined,NULL
1742304662,abda418378729d84a1a46fe1f54043bc,PennController,1,0,Prolific-ID,NULL,PennController,0,_Header_,End,1742304279410,648899,undefined,NULL
1742304662,abda418378729d84a1a46fe1f54043bc,PennController,1,0,Prolific-ID,NULL,Var,subject,Final,648899,1742304289450,648899,undefined,Value at the end of the trial
1742304662,abda418378729d84a1a46fe1f54043bc,PennController,1,0,Prolific-ID,NULL,TextInput,Pro-ID-input,EnterReturn,6644f69cde200c2d2c398842,1742304289450,648899,undefined,NULL
1742304662,abda418378729d84a1a46fe1f54043bc,PennController,1,0,Prolific-ID,NULL,TextInput,Pro-ID-input,First,6644f69cde200c2d2c398842,1742304289450,648899,undefined,Enter
1742304662,abda418378729d84a1a46fe1f54043bc,PennController,1,0,Prolific-ID,NULL,TextInput,Pro-ID-input,Final,6644f69cde200c2d2c398842,1742304289451,648899,undefined,NULL
1742304662,abda418378729d84a1a46fe1f54043bc,PennController,1,0,Prolific-ID,NULL,PennController,0,_Trial_,End,1742304289451,648899,undefined,NULL
1742304662,abda418378729d84a1a46fe1f54043bc,PennController,2,0,consent,NULL,PennController,1,_Trial_,Start,1742304289452,648899,undefined,NULL
1742304662,abda418378729d84a1a46fe1f54043bc,PennController,2,0,consent,NULL,PennController,1,_Header_,Start,1742304289452,648899,undefined,NULL
1742304662,abda418378729d84a1a46fe1f54043bc,PennController,2,0,consent,NULL,PennController,1,_Header_,End,1742304289452,648899,undefined,NULL
1742304662,abda418378729d84a1a46fe1f54043bc,PennController,2,0,consent,NULL,Var,subject,Final,648899,1742304299565,648899,undefined,Value at the end of the trial
1742304662,abda418378729d84a1a46fe1f54043bc,PennController,2,0,consent,NULL,PennController,1,_Trial_,End,1742304299565,648899,undefined,NULL
1742304662,abda418378729d84a1a46fe1f54043bc,PennController,3,0,background,NULL,PennController,2,_Trial_,Start,1742304299566,648899,24,NULL
1742304662,abda418378729d84a1a46fe1f54043bc,PennController,3,0,background,NULL,PennController,2,_Header_,Start,1742304299566,648899,24,NULL
1742304662,abda418378729d84a1a46fe1f54043bc,PennController,3,0,background,NULL,PennController,2,_Header_,End,1742304299566,648899,24,NULL
1742304662,abda418378729d84a1a46fe1f54043bc,PennController,3,0,background,NULL,Selector,L1-selector,Selection,y,1742304303023,648899,24,y;n
1742304662,abda418378729d84a1a46fe1f54043bc,PennController,3,0,background,NULL,TextInput,input_age,First,,1742304304834,648899,24,2
1742304662,abda418378729d84a1a46fe1f54043bc,PennController,3,0,background,NULL,TextInput,input_age,EnterReturn,24,1742304306770,648899,24,NULL
1742304662,abda418378729d84a1a46fe1f54043bc,PennController,3,0,background,NULL,TextInput,input_age,Final,24,1742304306772,648899,24,NULL
1742304662,abda418378729d84a1a46fe1f54043bc,PennController,3,0,background,NULL,Var,subject,Final,648899,1742304306772,648899,24,Value at the end of the trial
1742304662,abda418378729d84a1a46fe1f54043bc,PennController,3,0,background,NULL,PennController,2,_Trial_,End,1742304306772,648899,24,NULL
1742304662,abda418378729d84a1a46fe1f54043bc,PennController,4,0,instructions,NULL,PennController,3,_Trial_,Start,1742304306774,648899,24,NULL
1742304662,abda418378729d84a1a46fe1f54043bc,PennController,4,0,instructions,NULL,PennController,3,_Header_,Start,1742304306774,648899,24,NULL
1742304662,abda418378729d84a1a46fe1f54043bc,PennController,4,0,instructions,NULL,PennController,3,_Header_,End,1742304306774,648899,24,NULL
1742304662,abda418378729d84a1a46fe1f54043bc,PennController,4,0,instructions,NULL,Var,subject,Final,648899,1742304314584,648899,24,Value at the end of the trial
1742304662,abda418378729d84a1a46fe1f54043bc,PennController,4,0,instructions,NULL,PennController,3,_Trial_,End,1742304314585,648899,24,NULL
1742304662,abda418378729d84a1a46fe1f54043bc,PennController,5,0,demo-trial,NULL,PennController,4,_Trial_,Start,1742304314587,648899,24,NULL
1742304662,abda418378729d84a1a46fe1f54043bc,PennController,5,0,demo-trial,NULL,PennController,4,_Header_,Start,1742304314587,648899,24,NULL
1742304662,abda418378729d84a1a46fe1f54043bc,PennController,5,0,demo-trial,NULL,PennController,4,_Header_,End,1742304314587,648899,24,NULL
1742304662,abda418378729d84a1a46fe1f54043bc,PennController,5,0,demo-trial,NULL,DragDrop,pt-1,Drag,I smelled the rose next to the house.,1742304326193,648899,24,Dropped on (8%2C 2)
1742304662,abda418378729d84a1a46fe1f54043bc,PennController,5,0,demo-trial,NULL,DragDrop,pt-1,Drop,(8%2C 2),1742304328803,648899,24,Dopped I smelled the rose next to the house.
1742304662,abda418378729d84a1a46fe1f54043bc,PennController,5,0,demo-trial,NULL,DragDrop,pt-1,Drag,You saw the sunflower yesterday.,1742304331244,648899,24,Dropped on (3%2C 3)
1742304662,abda418378729d84a1a46fe1f54043bc,PennController,5,0,demo-trial,NULL,DragDrop,pt-1,Drop,(3%2C 3),1742304333690,648899,24,Dopped You saw the sunflower yesterday.
1742304662,abda418378729d84a1a46fe1f54043bc,PennController,5,0,demo-trial,NULL,DragDrop,pt-1,Drag,You saw the sunflower yesterday.,1742304334922,648899,24,Dropped on (8%2C 2)
1742304662,abda418378729d84a1a46fe1f54043bc,PennController,5,0,demo-trial,NULL,DragDrop,pt-1,Drop,(8%2C 2),1742304336328,648899,24,Dopped You saw the sunflower yesterday.
1742304662,abda418378729d84a1a46fe1f54043bc,PennController,5,0,demo-trial,NULL,DragDrop,pt-1,Drag,You saw the sunflower yesterday.,1742304336938,648899,24,Dropped on (2%2C 9)
1742304662,abda418378729d84a1a46fe1f54043bc,PennController,5,0,demo-trial,NULL,DragDrop,pt-1,Drop,(2%2C 9),1742304337771,648899,24,Dopped You saw the sunflower yesterday.
1742304662,abda418378729d84a1a46fe1f54043bc,PennController,5,0,demo-trial,NULL,DragDrop,pt-1,Drag,He loves the fluffy dog.,1742304339834,648899,24,Dropped on (24%2C 3)
1742304662,abda418378729d84a1a46fe1f54043bc,PennController,5,0,demo-trial,NULL,DragDrop,pt-1,Drop,(24%2C 3),1742304341155,648899,24,Dopped He loves the fluffy dog.
1742304662,abda418378729d84a1a46fe1f54043bc,PennController,5,0,demo-trial,NULL,DragDrop,pt-1,Drag,They have a cat in the carrier.,1742304342250,648899,24,Dropped on (24%2C 3)
1742304662,abda418378729d84a1a46fe1f54043bc,PennController,5,0,demo-trial,NULL,DragDrop,pt-1,Drop,(24%2C 3),1742304343845,648899,24,Dopped They have a cat in the carrier.
1742304662,abda418378729d84a1a46fe1f54043bc,PennController,5,0,demo-trial,NULL,DragDrop,pt-1,Drag,He loves the fluffy dog.,1742304347199,648899,24,Dropped on (28%2C 5)
1742304662,abda418378729d84a1a46fe1f54043bc,PennController,5,0,demo-trial,NULL,DragDrop,pt-1,Drop,(28%2C 5),1742304348574,648899,24,Dopped He loves the fluffy dog.
1742304662,abda418378729d84a1a46fe1f54043bc,PennController,5,0,demo-trial,NULL,DragDrop,pt-1,Final,I smelled the rose next to the house.:(3%2C 3);He loves the fluffy dog.:(28%2C 5);They have a cat in the carrier.:(24%2C 3);You saw the sunflower yesterday.:(2%2C 9),1742304355566,648899,24,NULL
1742304662,abda418378729d84a1a46fe1f54043bc,PennController,5,0,demo-trial,NULL,Var,subject,Final,648899,1742304355567,648899,24,Value at the end of the trial
1742304662,abda418378729d84a1a46fe1f54043bc,PennController,5,0,demo-trial,NULL,PennController,4,_Trial_,End,1742304355567,648899,24,NULL
# 15. group.
# 16. item.
# 17. itemCond.
# 18. Sentence1.
# 19. Sentence1Cond.
# 20. Sentence2.
# 21. Sentence2Cond.
# 22. Sentence3.
# 23. Sentence3Cond.
# 24. Sentence4.
# 25. Sentence4Cond.
# 26. Sentence5.
# 27. Sentence5Cond.
# 28. Sentence6.
# 29. Sentence6Cond.
# 30. Sentence7.
# 31. Sentence7Cond.
# 32. Sentence8.
# 33. Sentence8Cond.
# 34. Comments.
1742304662,abda418378729d84a1a46fe1f54043bc,PennController,6,0,trials,NULL,PennController,7,_Trial_,Start,1742304355569,648899,24,4,1,Awareness,She loves playful giraffes.,ModAware2,Dr. Hart killed our pet.,NoModAware4,Jane calls the bluff. ,NoModAware2,I put my angry foot in the cool water.,ModAware4,Dignitaries condemn the rebellious act.,ModAware4,He had this habit of telling you everything.,NoModAware2,I e-mailed your assistant earlier this morning .,NoModAware4,Ben made another happy announcement on March 28.,ModAware2,NULL
1742304662,abda418378729d84a1a46fe1f54043bc,PennController,6,0,trials,NULL,PennController,7,_Header_,Start,1742304355569,648899,24,4,1,Awareness,She loves playful giraffes.,ModAware2,Dr. Hart killed our pet.,NoModAware4,Jane calls the bluff. ,NoModAware2,I put my angry foot in the cool water.,ModAware4,Dignitaries condemn the rebellious act.,ModAware4,He had this habit of telling you everything.,NoModAware2,I e-mailed your assistant earlier this morning .,NoModAware4,Ben made another happy announcement on March 28.,ModAware2,NULL
1742304662,abda418378729d84a1a46fe1f54043bc,PennController,6,0,trials,NULL,PennController,7,_Header_,End,1742304355570,648899,24,4,1,Awareness,She loves playful giraffes.,ModAware2,Dr. Hart killed our pet.,NoModAware4,Jane calls the bluff. ,NoModAware2,I put my angry foot in the cool water.,ModAware4,Dignitaries condemn the rebellious act.,ModAware4,He had this habit of telling you everything.,NoModAware2,I e-mailed your assistant earlier this morning .,NoModAware4,Ben made another happy announcement on March 28.,ModAware2,NULL
1742304662,abda418378729d84a1a46fe1f54043bc,PennController,6,0,trials,NULL,DragDrop,experimental-trials,Drag,Dignitaries condemn the rebellious act.,1742304365549,648899,24,4,1,Awareness,She loves playful giraffes.,ModAware2,Dr. Hart killed our pet.,NoModAware4,Jane calls the bluff. ,NoModAware2,I put my angry foot in the cool water.,ModAware4,Dignitaries condemn the rebellious act.,ModAware4,He had this habit of telling you everything.,NoModAware2,I e-mailed your assistant earlier this morning .,NoModAware4,Ben made another happy announcement on March 28.,ModAware2,Dropped on (8%2C 2)
1742304662,abda418378729d84a1a46fe1f54043bc,PennController,6,0,trials,NULL,DragDrop,experimental-trials,Drop,(8%2C 2),1742304367676,648899,24,4,1,Awareness,She loves playful giraffes.,ModAware2,Dr. Hart killed our pet.,NoModAware4,Jane calls the bluff. ,NoModAware2,I put my angry foot in the cool water.,ModAware4,Dignitaries condemn the rebellious act.,ModAware4,He had this habit of telling you everything.,NoModAware2,I e-mailed your assistant earlier this morning .,NoModAware4,Ben made another happy announcement on March 28.,ModAware2,Dopped Dignitaries condemn the rebellious act.
1742304662,abda418378729d84a1a46fe1f54043bc,PennController,6,0,trials,NULL,DragDrop,experimental-trials,Drag,Jane calls the bluff. ,1742304370223,648899,24,4,1,Awareness,She loves playful giraffes.,ModAware2,Dr. Hart killed our pet.,NoModAware4,Jane calls the bluff. ,NoModAware2,I put my angry foot in the cool water.,ModAware4,Dignitaries condemn the rebellious act.,ModAware4,He had this habit of telling you everything.,NoModAware2,I e-mailed your assistant earlier this morning .,NoModAware4,Ben made another happy announcement on March 28.,ModAware2,Not dropped
1742304662,abda418378729d84a1a46fe1f54043bc,PennController,6,0,trials,NULL,DragDrop,experimental-trials,Drag,Dr. Hart killed our pet.,1742304376834,648899,24,4,1,Awareness,She loves playful giraffes.,ModAware2,Dr. Hart killed our pet.,NoModAware4,Jane calls the bluff. ,NoModAware2,I put my angry foot in the cool water.,ModAware4,Dignitaries condemn the rebellious act.,ModAware4,He had this habit of telling you everything.,NoModAware2,I e-mailed your assistant earlier this morning .,NoModAware4,Ben made another happy announcement on March 28.,ModAware2,Dropped on (3%2C 4)
1742304662,abda418378729d84a1a46fe1f54043bc,PennController,6,0,trials,NULL,DragDrop,experimental-trials,Drop,(3%2C 4),1742304379020,648899,24,4,1,Awareness,She loves playful giraffes.,ModAware2,Dr. Hart killed our pet.,NoModAware4,Jane calls the bluff. ,NoModAware2,I put my angry foot in the cool water.,ModAware4,Dignitaries condemn the rebellious act.,ModAware4,He had this habit of telling you everything.,NoModAware2,I e-mailed your assistant earlier this morning .,NoModAware4,Ben made another happy announcement on March 28.,ModAware2,Dopped Dr. Hart killed our pet.
1742304662,abda418378729d84a1a46fe1f54043bc,PennController,6,0,trials,NULL,DragDrop,experimental-trials,Drag,I put my angry foot in the cool water.,1742304386900,648899,24,4,1,Awareness,She loves playful giraffes.,ModAware2,Dr. Hart killed our pet.,NoModAware4,Jane calls the bluff. ,NoModAware2,I put my angry foot in the cool water.,ModAware4,Dignitaries condemn the rebellious act.,ModAware4,He had this habit of telling you everything.,NoModAware2,I e-mailed your assistant earlier this morning .,NoModAware4,Ben made another happy announcement on March 28.,ModAware2,Dropped on (3%2C 6)
1742304662,abda418378729d84a1a46fe1f54043bc,PennController,6,0,trials,NULL,DragDrop,experimental-trials,Drop,(3%2C 6),1742304392836,648899,24,4,1,Awareness,She loves playful giraffes.,ModAware2,Dr. Hart killed our pet.,NoModAware4,Jane calls the bluff. ,NoModAware2,I put my angry foot in the cool water.,ModAware4,Dignitaries condemn the rebellious act.,ModAware4,He had this habit of telling you everything.,NoModAware2,I e-mailed your assistant earlier this morning .,NoModAware4,Ben made another happy announcement on March 28.,ModAware2,Dopped I put my angry foot in the cool water.
1742304662,abda418378729d84a1a46fe1f54043bc,PennController,6,0,trials,NULL,DragDrop,experimental-trials,Drag,He had this habit of telling you everything.,1742304397925,648899,24,4,1,Awareness,She loves playful giraffes.,ModAware2,Dr. Hart killed our pet.,NoModAware4,Jane calls the bluff. ,NoModAware2,I put my angry foot in the cool water.,ModAware4,Dignitaries condemn the rebellious act.,ModAware4,He had this habit of telling you everything.,NoModAware2,I e-mailed your assistant earlier this morning .,NoModAware4,Ben made another happy announcement on March 28.,ModAware2,Not dropped
1742304662,abda418378729d84a1a46fe1f54043bc,PennController,6,0,trials,NULL,DragDrop,experimental-trials,Drag,She loves playful giraffes.,1742304399476,648899,24,4,1,Awareness,She loves playful giraffes.,ModAware2,Dr. Hart killed our pet.,NoModAware4,Jane calls the bluff. ,NoModAware2,I put my angry foot in the cool water.,ModAware4,Dignitaries condemn the rebellious act.,ModAware4,He had this habit of telling you everything.,NoModAware2,I e-mailed your assistant earlier this morning .,NoModAware4,Ben made another happy announcement on March 28.,ModAware2,Dropped on (29%2C 2)
1742304662,abda418378729d84a1a46fe1f54043bc,PennController,6,0,trials,NULL,DragDrop,experimental-trials,Drop,(29%2C 2),1742304401351,648899,24,4,1,Awareness,She loves playful giraffes.,ModAware2,Dr. Hart killed our pet.,NoModAware4,Jane calls the bluff. ,NoModAware2,I put my angry foot in the cool water.,ModAware4,Dignitaries condemn the rebellious act.,ModAware4,He had this habit of telling you everything.,NoModAware2,I e-mailed your assistant earlier this morning .,NoModAware4,Ben made another happy announcement on March 28.,ModAware2,Dopped She loves playful giraffes.
1742304662,abda418378729d84a1a46fe1f54043bc,PennController,6,0,trials,NULL,DragDrop,experimental-trials,Drag,Ben made another happy announcement on March 28.,1742304402865,648899,24,4,1,Awareness,She loves playful giraffes.,ModAware2,Dr. Hart killed our pet.,NoModAware4,Jane calls the bluff. ,NoModAware2,I put my angry foot in the cool water.,ModAware4,Dignitaries condemn the rebellious act.,ModAware4,He had this habit of telling you everything.,NoModAware2,I e-mailed your assistant earlier this morning .,NoModAware4,Ben made another happy announcement on March 28.,ModAware2,Dropped on (25%2C 3)
1742304662,abda418378729d84a1a46fe1f54043bc,PennController,6,0,trials,NULL,DragDrop,experimental-trials,Drop,(25%2C 3),1742304404997,648899,24,4,1,Awareness,She loves playful giraffes.,ModAware2,Dr. Hart killed our pet.,NoModAware4,Jane calls the bluff. ,NoModAware2,I put my angry foot in the cool water.,ModAware4,Dignitaries condemn the rebellious act.,ModAware4,He had this habit of telling you everything.,NoModAware2,I e-mailed your assistant earlier this morning .,NoModAware4,Ben made another happy announcement on March 28.,ModAware2,Dopped Ben made another happy announcement on March 28.
1742304662,abda418378729d84a1a46fe1f54043bc,PennController,6,0,trials,NULL,DragDrop,experimental-trials,Drag,Ben made another happy announcement on March 28.,1742304405839,648899,24,4,1,Awareness,She loves playful giraffes.,ModAware2,Dr. Hart killed our pet.,NoModAware4,Jane calls the bluff. ,NoModAware2,I put my angry foot in the cool water.,ModAware4,Dignitaries condemn the rebellious act.,ModAware4,He had this habit of telling you everything.,NoModAware2,I e-mailed your assistant earlier this morning .,NoModAware4,Ben made another happy announcement on March 28.,ModAware2,Dropped on (27%2C 4)
1742304662,abda418378729d84a1a46fe1f54043bc,PennController,6,0,trials,NULL,DragDrop,experimental-trials,Drop,(27%2C 4),1742304406434,648899,24,4,1,Awareness,She loves playful giraffes.,ModAware2,Dr. Hart killed our pet.,NoModAware4,Jane calls the bluff. ,NoModAware2,I put my angry foot in the cool water.,ModAware4,Dignitaries condemn the rebellious act.,ModAware4,He had this habit of telling you everything.,NoModAware2,I e-mailed your assistant earlier this morning .,NoModAware4,Ben made another happy announcement on March 28.,ModAware2,Dopped Ben made another happy announcement on March 28.
1742304662,abda418378729d84a1a46fe1f54043bc,PennController,6,0,trials,NULL,DragDrop,experimental-trials,Drag,He had this habit of telling you everything.,1742304409574,648899,24,4,1,Awareness,She loves playful giraffes.,ModAware2,Dr. Hart killed our pet.,NoModAware4,Jane calls the bluff. ,NoModAware2,I put my angry foot in the cool water.,ModAware4,Dignitaries condemn the rebellious act.,ModAware4,He had this habit of telling you everything.,NoModAware2,I e-mailed your assistant earlier this morning .,NoModAware4,Ben made another happy announcement on March 28.,ModAware2,Dropped on (15%2C 9)
1742304662,abda418378729d84a1a46fe1f54043bc,PennController,6,0,trials,NULL,DragDrop,experimental-trials,Drop,(15%2C 9),1742304410628,648899,24,4,1,Awareness,She loves playful giraffes.,ModAware2,Dr. Hart killed our pet.,NoModAware4,Jane calls the bluff. ,NoModAware2,I put my angry foot in the cool water.,ModAware4,Dignitaries condemn the rebellious act.,ModAware4,He had this habit of telling you everything.,NoModAware2,I e-mailed your assistant earlier this morning .,NoModAware4,Ben made another happy announcement on March 28.,ModAware2,Dopped He had this habit of telling you everything.
1742304662,abda418378729d84a1a46fe1f54043bc,PennController,6,0,trials,NULL,DragDrop,experimental-trials,Drag,Jane calls the bluff. ,1742304411824,648899,24,4,1,Awareness,She loves playful giraffes.,ModAware2,Dr. Hart killed our pet.,NoModAware4,Jane calls the bluff. ,NoModAware2,I put my angry foot in the cool water.,ModAware4,Dignitaries condemn the rebellious act.,ModAware4,He had this habit of telling you everything.,NoModAware2,I e-mailed your assistant earlier this morning .,NoModAware4,Ben made another happy announcement on March 28.,ModAware2,Dropped on (19%2C 10)
1742304662,abda418378729d84a1a46fe1f54043bc,PennController,6,0,trials,NULL,DragDrop,experimental-trials,Drop,(19%2C 10),1742304412976,648899,24,4,1,Awareness,She loves playful giraffes.,ModAware2,Dr. Hart killed our pet.,NoModAware4,Jane calls the bluff. ,NoModAware2,I put my angry foot in the cool water.,ModAware4,Dignitaries condemn the rebellious act.,ModAware4,He had this habit of telling you everything.,NoModAware2,I e-mailed your assistant earlier this morning .,NoModAware4,Ben made another happy announcement on March 28.,ModAware2,Dopped Jane calls the bluff. 
1742304662,abda418378729d84a1a46fe1f54043bc,PennController,6,0,trials,NULL,DragDrop,experimental-trials,Drag,I e-mailed your assistant earlier this morning .,1742304414175,648899,24,4,1,Awareness,She loves playful giraffes.,ModAware2,Dr. Hart killed our pet.,NoModAware4,Jane calls the bluff. ,NoModAware2,I put my angry foot in the cool water.,ModAware4,Dignitaries condemn the rebellious act.,ModAware4,He had this habit of telling you everything.,NoModAware2,I e-mailed your assistant earlier this morning .,NoModAware4,Ben made another happy announcement on March 28.,ModAware2,Dropped on (18%2C 13)
1742304662,abda418378729d84a1a46fe1f54043bc,PennController,6,0,trials,NULL,DragDrop,experimental-trials,Drop,(18%2C 13),1742304415084,648899,24,4,1,Awareness,She loves playful giraffes.,ModAware2,Dr. Hart killed our pet.,NoModAware4,Jane calls the bluff. ,NoModAware2,I put my angry foot in the cool water.,ModAware4,Dignitaries condemn the rebellious act.,ModAware4,He had this habit of telling you everything.,NoModAware2,I e-mailed your assistant earlier this morning .,NoModAware4,Ben made another happy announcement on March 28.,ModAware2,Dopped I e-mailed your assistant earlier this morning .
1742304662,abda418378729d84a1a46fe1f54043bc,PennController,6,0,trials,NULL,DragDrop,experimental-trials,Final,She loves playful giraffes.:(29%2C 2);Dr. Hart killed our pet.:(3%2C 4);Jane calls the bluff. :(19%2C 10);I put my angry foot in the cool water.:(3%2C 6);Dignitaries condemn the rebellious act.:(8%2C 2);He had this habit of telling you everything.:(15%2C 9);I e-mailed your assistant earlier this morning .:(18%2C 13);Ben made another happy announcement on March 28.:(27%2C 4),1742304416842,648899,24,4,1,Awareness,She loves playful giraffes.,ModAware2,Dr. Hart killed our pet.,NoModAware4,Jane calls the bluff. ,NoModAware2,I put my angry foot in the cool water.,ModAware4,Dignitaries condemn the rebellious act.,ModAware4,He had this habit of telling you everything.,NoModAware2,I e-mailed your assistant earlier this morning .,NoModAware4,Ben made another happy announcement on March 28.,ModAware2,NULL
1742304662,abda418378729d84a1a46fe1f54043bc,PennController,6,0,trials,NULL,Var,subject,Final,648899,1742304416843,648899,24,4,1,Awareness,She loves playful giraffes.,ModAware2,Dr. Hart killed our pet.,NoModAware4,Jane calls the bluff. ,NoModAware2,I put my angry foot in the cool water.,ModAware4,Dignitaries condemn the rebellious act.,ModAware4,He had this habit of telling you everything.,NoModAware2,I e-mailed your assistant earlier this morning .,NoModAware4,Ben made another happy announcement on March 28.,ModAware2,Value at the end of the trial
1742304662,abda418378729d84a1a46fe1f54043bc,PennController,6,0,trials,NULL,PennController,7,_Trial_,End,1742304416843,648899,24,4,1,Awareness,She loves playful giraffes.,ModAware2,Dr. Hart killed our pet.,NoModAware4,Jane calls the bluff. ,NoModAware2,I put my angry foot in the cool water.,ModAware4,Dignitaries condemn the rebellious act.,ModAware4,He had this habit of telling you everything.,NoModAware2,I e-mailed your assistant earlier this morning .,NoModAware4,Ben made another happy announcement on March 28.,ModAware2,NULL
1742304662,abda418378729d84a1a46fe1f54043bc,PennController,7,0,trials,NULL,PennController,8,_Trial_,Start,1742304416846,648899,24,4,2,Instigation,Dr Johnson fixed my neck from a snowboard injury.,NoModInstigation2,The politician pinched a few energetic nerves yesterday with his choice of words.,ModInstigation2,I found the agreeable office to be very clean.,ModInstigation4,The managers staffed the organization with toadies.,NoModInstigation4,Daren wrote this determined response on January 25.,ModInstigation2,I won a golf lesson certificate with Jacob through a charity auction .,NoModInstigation2,I got these pictures from Instagram.,NoModInstigation4,One of the boys wrote the sad hymn.,ModInstigation4,NULL
1742304662,abda418378729d84a1a46fe1f54043bc,PennController,7,0,trials,NULL,PennController,8,_Header_,Start,1742304416846,648899,24,4,2,Instigation,Dr Johnson fixed my neck from a snowboard injury.,NoModInstigation2,The politician pinched a few energetic nerves yesterday with his choice of words.,ModInstigation2,I found the agreeable office to be very clean.,ModInstigation4,The managers staffed the organization with toadies.,NoModInstigation4,Daren wrote this determined response on January 25.,ModInstigation2,I won a golf lesson certificate with Jacob through a charity auction .,NoModInstigation2,I got these pictures from Instagram.,NoModInstigation4,One of the boys wrote the sad hymn.,ModInstigation4,NULL
1742304662,abda418378729d84a1a46fe1f54043bc,PennController,7,0,trials,NULL,PennController,8,_Header_,End,1742304416846,648899,24,4,2,Instigation,Dr Johnson fixed my neck from a snowboard injury.,NoModInstigation2,The politician pinched a few energetic nerves yesterday with his choice of words.,ModInstigation2,I found the agreeable office to be very clean.,ModInstigation4,The managers staffed the organization with toadies.,NoModInstigation4,Daren wrote this determined response on January 25.,ModInstigation2,I won a golf lesson certificate with Jacob through a charity auction .,NoModInstigation2,I got these pictures from Instagram.,NoModInstigation4,One of the boys wrote the sad hymn.,ModInstigation4,NULL
1742304662,abda418378729d84a1a46fe1f54043bc,PennController,7,0,trials,NULL,DragDrop,experimental-trials,Drag,Daren wrote this determined response on January 25.,1742304433671,648899,24,4,2,Instigation,Dr Johnson fixed my neck from a snowboard injury.,NoModInstigation2,The politician pinched a few energetic nerves yesterday with his choice of words.,ModInstigation2,I found the agreeable office to be very clean.,ModInstigation4,The managers staffed the organization with toadies.,NoModInstigation4,Daren wrote this determined response on January 25.,ModInstigation2,I won a golf lesson certificate with Jacob through a charity auction .,NoModInstigation2,I got these pictures from Instagram.,NoModInstigation4,One of the boys wrote the sad hymn.,ModInstigation4,Dropped on (10%2C 0)
1742304662,abda418378729d84a1a46fe1f54043bc,PennController,7,0,trials,NULL,DragDrop,experimental-trials,Drop,(10%2C 0),1742304435597,648899,24,4,2,Instigation,Dr Johnson fixed my neck from a snowboard injury.,NoModInstigation2,The politician pinched a few energetic nerves yesterday with his choice of words.,ModInstigation2,I found the agreeable office to be very clean.,ModInstigation4,The managers staffed the organization with toadies.,NoModInstigation4,Daren wrote this determined response on January 25.,ModInstigation2,I won a golf lesson certificate with Jacob through a charity auction .,NoModInstigation2,I got these pictures from Instagram.,NoModInstigation4,One of the boys wrote the sad hymn.,ModInstigation4,Dopped Daren wrote this determined response on January 25.
1742304662,abda418378729d84a1a46fe1f54043bc,PennController,7,0,trials,NULL,DragDrop,experimental-trials,Drag,One of the boys wrote the sad hymn.,1742304438628,648899,24,4,2,Instigation,Dr Johnson fixed my neck from a snowboard injury.,NoModInstigation2,The politician pinched a few energetic nerves yesterday with his choice of words.,ModInstigation2,I found the agreeable office to be very clean.,ModInstigation4,The managers staffed the organization with toadies.,NoModInstigation4,Daren wrote this determined response on January 25.,ModInstigation2,I won a golf lesson certificate with Jacob through a charity auction .,NoModInstigation2,I got these pictures from Instagram.,NoModInstigation4,One of the boys wrote the sad hymn.,ModInstigation4,Dropped on (5%2C 2)
1742304662,abda418378729d84a1a46fe1f54043bc,PennController,7,0,trials,NULL,DragDrop,experimental-trials,Drop,(5%2C 2),1742304440937,648899,24,4,2,Instigation,Dr Johnson fixed my neck from a snowboard injury.,NoModInstigation2,The politician pinched a few energetic nerves yesterday with his choice of words.,ModInstigation2,I found the agreeable office to be very clean.,ModInstigation4,The managers staffed the organization with toadies.,NoModInstigation4,Daren wrote this determined response on January 25.,ModInstigation2,I won a golf lesson certificate with Jacob through a charity auction .,NoModInstigation2,I got these pictures from Instagram.,NoModInstigation4,One of the boys wrote the sad hymn.,ModInstigation4,Dopped One of the boys wrote the sad hymn.
1742304662,abda418378729d84a1a46fe1f54043bc,PennController,7,0,trials,NULL,DragDrop,experimental-trials,Drag,One of the boys wrote the sad hymn.,1742304441970,648899,24,4,2,Instigation,Dr Johnson fixed my neck from a snowboard injury.,NoModInstigation2,The politician pinched a few energetic nerves yesterday with his choice of words.,ModInstigation2,I found the agreeable office to be very clean.,ModInstigation4,The managers staffed the organization with toadies.,NoModInstigation4,Daren wrote this determined response on January 25.,ModInstigation2,I won a golf lesson certificate with Jacob through a charity auction .,NoModInstigation2,I got these pictures from Instagram.,NoModInstigation4,One of the boys wrote the sad hymn.,ModInstigation4,Dropped on (2%2C 3)
1742304662,abda418378729d84a1a46fe1f54043bc,PennController,7,0,trials,NULL,DragDrop,experimental-trials,Drop,(2%2C 3),1742304442754,648899,24,4,2,Instigation,Dr Johnson fixed my neck from a snowboard injury.,NoModInstigation2,The politician pinched a few energetic nerves yesterday with his choice of words.,ModInstigation2,I found the agreeable office to be very clean.,ModInstigation4,The managers staffed the organization with toadies.,NoModInstigation4,Daren wrote this determined response on January 25.,ModInstigation2,I won a golf lesson certificate with Jacob through a charity auction .,NoModInstigation2,I got these pictures from Instagram.,NoModInstigation4,One of the boys wrote the sad hymn.,ModInstigation4,Dopped One of the boys wrote the sad hymn.
1742304662,abda418378729d84a1a46fe1f54043bc,PennController,7,0,trials,NULL,DragDrop,experimental-trials,Drag,Dr Johnson fixed my neck from a snowboard injury.,1742304470983,648899,24,4,2,Instigation,Dr Johnson fixed my neck from a snowboard injury.,NoModInstigation2,The politician pinched a few energetic nerves yesterday with his choice of words.,ModInstigation2,I found the agreeable office to be very clean.,ModInstigation4,The managers staffed the organization with toadies.,NoModInstigation4,Daren wrote this determined response on January 25.,ModInstigation2,I won a golf lesson certificate with Jacob through a charity auction .,NoModInstigation2,I got these pictures from Instagram.,NoModInstigation4,One of the boys wrote the sad hymn.,ModInstigation4,Dropped on (28%2C 1)
1742304662,abda418378729d84a1a46fe1f54043bc,PennController,7,0,trials,NULL,DragDrop,experimental-trials,Drop,(28%2C 1),1742304472521,648899,24,4,2,Instigation,Dr Johnson fixed my neck from a snowboard injury.,NoModInstigation2,The politician pinched a few energetic nerves yesterday with his choice of words.,ModInstigation2,I found the agreeable office to be very clean.,ModInstigation4,The managers staffed the organization with toadies.,NoModInstigation4,Daren wrote this determined response on January 25.,ModInstigation2,I won a golf lesson certificate with Jacob through a charity auction .,NoModInstigation2,I got these pictures from Instagram.,NoModInstigation4,One of the boys wrote the sad hymn.,ModInstigation4,Dopped Dr Johnson fixed my neck from a snowboard injury.
1742304662,abda418378729d84a1a46fe1f54043bc,PennController,7,0,trials,NULL,DragDrop,experimental-trials,Drag,I found the agreeable office to be very clean.,1742304473549,648899,24,4,2,Instigation,Dr Johnson fixed my neck from a snowboard injury.,NoModInstigation2,The politician pinched a few energetic nerves yesterday with his choice of words.,ModInstigation2,I found the agreeable office to be very clean.,ModInstigation4,The managers staffed the organization with toadies.,NoModInstigation4,Daren wrote this determined response on January 25.,ModInstigation2,I won a golf lesson certificate with Jacob through a charity auction .,NoModInstigation2,I got these pictures from Instagram.,NoModInstigation4,One of the boys wrote the sad hymn.,ModInstigation4,Dropped on (29%2C 2)
1742304662,abda418378729d84a1a46fe1f54043bc,PennController,7,0,trials,NULL,DragDrop,experimental-trials,Drop,(29%2C 2),1742304475110,648899,24,4,2,Instigation,Dr Johnson fixed my neck from a snowboard injury.,NoModInstigation2,The politician pinched a few energetic nerves yesterday with his choice of words.,ModInstigation2,I found the agreeable office to be very clean.,ModInstigation4,The managers staffed the organization with toadies.,NoModInstigation4,Daren wrote this determined response on January 25.,ModInstigation2,I won a golf lesson certificate with Jacob through a charity auction .,NoModInstigation2,I got these pictures from Instagram.,NoModInstigation4,One of the boys wrote the sad hymn.,ModInstigation4,Dopped I found the agreeable office to be very clean.
1742304662,abda418378729d84a1a46fe1f54043bc,PennController,7,0,trials,NULL,DragDrop,experimental-trials,Drag,The politician pinched a few energetic nerves yesterday with his choice of words.,1742304490088,648899,24,4,2,Instigation,Dr Johnson fixed my neck from a snowboard injury.,NoModInstigation2,The politician pinched a few energetic nerves yesterday with his choice of words.,ModInstigation2,I found the agreeable office to be very clean.,ModInstigation4,The managers staffed the organization with toadies.,NoModInstigation4,Daren wrote this determined response on January 25.,ModInstigation2,I won a golf lesson certificate with Jacob through a charity auction .,NoModInstigation2,I got these pictures from Instagram.,NoModInstigation4,One of the boys wrote the sad hymn.,ModInstigation4,Dropped on (7%2C 10)
1742304662,abda418378729d84a1a46fe1f54043bc,PennController,7,0,trials,NULL,DragDrop,experimental-trials,Drop,(7%2C 10),1742304491717,648899,24,4,2,Instigation,Dr Johnson fixed my neck from a snowboard injury.,NoModInstigation2,The politician pinched a few energetic nerves yesterday with his choice of words.,ModInstigation2,I found the agreeable office to be very clean.,ModInstigation4,The managers staffed the organization with toadies.,NoModInstigation4,Daren wrote this determined response on January 25.,ModInstigation2,I won a golf lesson certificate with Jacob through a charity auction .,NoModInstigation2,I got these pictures from Instagram.,NoModInstigation4,One of the boys wrote the sad hymn.,ModInstigation4,Dopped The politician pinched a few energetic nerves yesterday with his choice of words.
1742304662,abda418378729d84a1a46fe1f54043bc,PennController,7,0,trials,NULL,DragDrop,experimental-trials,Drag,The politician pinched a few energetic nerves yesterday with his choice of words.,1742304492615,648899,24,4,2,Instigation,Dr Johnson fixed my neck from a snowboard injury.,NoModInstigation2,The politician pinched a few energetic nerves yesterday with his choice of words.,ModInstigation2,I found the agreeable office to be very clean.,ModInstigation4,The managers staffed the organization with toadies.,NoModInstigation4,Daren wrote this determined response on January 25.,ModInstigation2,I won a golf lesson certificate with Jacob through a charity auction .,NoModInstigation2,I got these pictures from Instagram.,NoModInstigation4,One of the boys wrote the sad hymn.,ModInstigation4,Dropped on (7%2C 10)
1742304662,abda418378729d84a1a46fe1f54043bc,PennController,7,0,trials,NULL,DragDrop,experimental-trials,Drop,(7%2C 10),1742304493290,648899,24,4,2,Instigation,Dr Johnson fixed my neck from a snowboard injury.,NoModInstigation2,The politician pinched a few energetic nerves yesterday with his choice of words.,ModInstigation2,I found the agreeable office to be very clean.,ModInstigation4,The managers staffed the organization with toadies.,NoModInstigation4,Daren wrote this determined response on January 25.,ModInstigation2,I won a golf lesson certificate with Jacob through a charity auction .,NoModInstigation2,I got these pictures from Instagram.,NoModInstigation4,One of the boys wrote the sad hymn.,ModInstigation4,Dopped The politician pinched a few energetic nerves yesterday with his choice of words.
1742304662,abda418378729d84a1a46fe1f54043bc,PennController,7,0,trials,NULL,DragDrop,experimental-trials,Drag,The managers staffed the organization with toadies.,1742304494987,648899,24,4,2,Instigation,Dr Johnson fixed my neck from a snowboard injury.,NoModInstigation2,The politician pinched a few energetic nerves yesterday with his choice of words.,ModInstigation2,I found the agreeable office to be very clean.,ModInstigation4,The managers staffed the organization with toadies.,NoModInstigation4,Daren wrote this determined response on January 25.,ModInstigation2,I won a golf lesson certificate with Jacob through a charity auction .,NoModInstigation2,I got these pictures from Instagram.,NoModInstigation4,One of the boys wrote the sad hymn.,ModInstigation4,Dropped on (5%2C 11)
1742304662,abda418378729d84a1a46fe1f54043bc,PennController,7,0,trials,NULL,DragDrop,experimental-trials,Drop,(5%2C 11),1742304497534,648899,24,4,2,Instigation,Dr Johnson fixed my neck from a snowboard injury.,NoModInstigation2,The politician pinched a few energetic nerves yesterday with his choice of words.,ModInstigation2,I found the agreeable office to be very clean.,ModInstigation4,The managers staffed the organization with toadies.,NoModInstigation4,Daren wrote this determined response on January 25.,ModInstigation2,I won a golf lesson certificate with Jacob through a charity auction .,NoModInstigation2,I got these pictures from Instagram.,NoModInstigation4,One of the boys wrote the sad hymn.,ModInstigation4,Dopped The managers staffed the organization with toadies.
1742304662,abda418378729d84a1a46fe1f54043bc,PennController,7,0,trials,NULL,DragDrop,experimental-trials,Drag,I won a golf lesson certificate with Jacob through a charity auction .,1742304500634,648899,24,4,2,Instigation,Dr Johnson fixed my neck from a snowboard injury.,NoModInstigation2,The politician pinched a few energetic nerves yesterday with his choice of words.,ModInstigation2,I found the agreeable office to be very clean.,ModInstigation4,The managers staffed the organization with toadies.,NoModInstigation4,Daren wrote this determined response on January 25.,ModInstigation2,I won a golf lesson certificate with Jacob through a charity auction .,NoModInstigation2,I got these pictures from Instagram.,NoModInstigation4,One of the boys wrote the sad hymn.,ModInstigation4,Dropped on (22%2C 9)
1742304662,abda418378729d84a1a46fe1f54043bc,PennController,7,0,trials,NULL,DragDrop,experimental-trials,Drop,(22%2C 9),1742304501985,648899,24,4,2,Instigation,Dr Johnson fixed my neck from a snowboard injury.,NoModInstigation2,The politician pinched a few energetic nerves yesterday with his choice of words.,ModInstigation2,I found the agreeable office to be very clean.,ModInstigation4,The managers staffed the organization with toadies.,NoModInstigation4,Daren wrote this determined response on January 25.,ModInstigation2,I won a golf lesson certificate with Jacob through a charity auction .,NoModInstigation2,I got these pictures from Instagram.,NoModInstigation4,One of the boys wrote the sad hymn.,ModInstigation4,Dopped I won a golf lesson certificate with Jacob through a charity auction .
1742304662,abda418378729d84a1a46fe1f54043bc,PennController,7,0,trials,NULL,DragDrop,experimental-trials,Drag,I got these pictures from Instagram.,1742304503162,648899,24,4,2,Instigation,Dr Johnson fixed my neck from a snowboard injury.,NoModInstigation2,The politician pinched a few energetic nerves yesterday with his choice of words.,ModInstigation2,I found the agreeable office to be very clean.,ModInstigation4,The managers staffed the organization with toadies.,NoModInstigation4,Daren wrote this determined response on January 25.,ModInstigation2,I won a golf lesson certificate with Jacob through a charity auction .,NoModInstigation2,I got these pictures from Instagram.,NoModInstigation4,One of the boys wrote the sad hymn.,ModInstigation4,Dropped on (25%2C 11)
1742304662,abda418378729d84a1a46fe1f54043bc,PennController,7,0,trials,NULL,DragDrop,experimental-trials,Drop,(25%2C 11),1742304504347,648899,24,4,2,Instigation,Dr Johnson fixed my neck from a snowboard injury.,NoModInstigation2,The politician pinched a few energetic nerves yesterday with his choice of words.,ModInstigation2,I found the agreeable office to be very clean.,ModInstigation4,The managers staffed the organization with toadies.,NoModInstigation4,Daren wrote this determined response on January 25.,ModInstigation2,I won a golf lesson certificate with Jacob through a charity auction .,NoModInstigation2,I got these pictures from Instagram.,NoModInstigation4,One of the boys wrote the sad hymn.,ModInstigation4,Dopped I got these pictures from Instagram.
1742304662,abda418378729d84a1a46fe1f54043bc,PennController,7,0,trials,NULL,DragDrop,experimental-trials,Drag,I got these pictures from Instagram.,1742304505165,648899,24,4,2,Instigation,Dr Johnson fixed my neck from a snowboard injury.,NoModInstigation2,The politician pinched a few energetic nerves yesterday with his choice of words.,ModInstigation2,I found the agreeable office to be very clean.,ModInstigation4,The managers staffed the organization with toadies.,NoModInstigation4,Daren wrote this determined response on January 25.,ModInstigation2,I won a golf lesson certificate with Jacob through a charity auction .,NoModInstigation2,I got these pictures from Instagram.,NoModInstigation4,One of the boys wrote the sad hymn.,ModInstigation4,Dropped on (24%2C 11)
1742304662,abda418378729d84a1a46fe1f54043bc,PennController,7,0,trials,NULL,DragDrop,experimental-trials,Drop,(24%2C 11),1742304505930,648899,24,4,2,Instigation,Dr Johnson fixed my neck from a snowboard injury.,NoModInstigation2,The politician pinched a few energetic nerves yesterday with his choice of words.,ModInstigation2,I found the agreeable office to be very clean.,ModInstigation4,The managers staffed the organization with toadies.,NoModInstigation4,Daren wrote this determined response on January 25.,ModInstigation2,I won a golf lesson certificate with Jacob through a charity auction .,NoModInstigation2,I got these pictures from Instagram.,NoModInstigation4,One of the boys wrote the sad hymn.,ModInstigation4,Dopped I got these pictures from Instagram.
1742304662,abda418378729d84a1a46fe1f54043bc,PennController,7,0,trials,NULL,DragDrop,experimental-trials,Final,Dr Johnson fixed my neck from a snowboard injury.:(28%2C 1);The politician pinched a few energetic nerves yesterday with his choice of words.:(7%2C 10);I found the agreeable office to be very clean.:(29%2C 2);The managers staffed the organization with toadies.:(5%2C 11);Daren wrote this determined response on January 25.:(10%2C 0);I won a golf lesson certificate with Jacob through a charity auction .:(22%2C 9);I got these pictures from Instagram.:(24%2C 11);One of the boys wrote the sad hymn.:(2%2C 3),1742304507513,648899,24,4,2,Instigation,Dr Johnson fixed my neck from a snowboard injury.,NoModInstigation2,The politician pinched a few energetic nerves yesterday with his choice of words.,ModInstigation2,I found the agreeable office to be very clean.,ModInstigation4,The managers staffed the organization with toadies.,NoModInstigation4,Daren wrote this determined response on January 25.,ModInstigation2,I won a golf lesson certificate with Jacob through a charity auction .,NoModInstigation2,I got these pictures from Instagram.,NoModInstigation4,One of the boys wrote the sad hymn.,ModInstigation4,NULL
1742304662,abda418378729d84a1a46fe1f54043bc,PennController,7,0,trials,NULL,Var,subject,Final,648899,1742304507513,648899,24,4,2,Instigation,Dr Johnson fixed my neck from a snowboard injury.,NoModInstigation2,The politician pinched a few energetic nerves yesterday with his choice of words.,ModInstigation2,I found the agreeable office to be very clean.,ModInstigation4,The managers staffed the organization with toadies.,NoModInstigation4,Daren wrote this determined response on January 25.,ModInstigation2,I won a golf lesson certificate with Jacob through a charity auction .,NoModInstigation2,I got these pictures from Instagram.,NoModInstigation4,One of the boys wrote the sad hymn.,ModInstigation4,Value at the end of the trial
1742304662,abda418378729d84a1a46fe1f54043bc,PennController,7,0,trials,NULL,PennController,8,_Trial_,End,1742304507513,648899,24,4,2,Instigation,Dr Johnson fixed my neck from a snowboard injury.,NoModInstigation2,The politician pinched a few energetic nerves yesterday with his choice of words.,ModInstigation2,I found the agreeable office to be very clean.,ModInstigation4,The managers staffed the organization with toadies.,NoModInstigation4,Daren wrote this determined response on January 25.,ModInstigation2,I won a golf lesson certificate with Jacob through a charity auction .,NoModInstigation2,I got these pictures from Instagram.,NoModInstigation4,One of the boys wrote the sad hymn.,ModInstigation4,NULL
1742304662,abda418378729d84a1a46fe1f54043bc,PennController,8,0,trials,NULL,PennController,9,_Trial_,Start,1742304507517,648899,24,4,3,Sentience,I enjoyed my lively tour.,ModSentience2,Pound for pound%2C mountain lions eat more gentle game than wolves .,ModSentience4,I saw this place.,NoModSentience4,In the end%2C John kept his promise.,NoModSentience2,I urge all wise parishioners to come see Gus.,ModSentience4,Patrick made a distraught phone call to Tom.,ModSentience2,He knows his bees.,NoModSentience2,I had the mechanic working feverishly to get my motor replaced .,NoModSentience4,NULL
1742304662,abda418378729d84a1a46fe1f54043bc,PennController,8,0,trials,NULL,PennController,9,_Header_,Start,1742304507517,648899,24,4,3,Sentience,I enjoyed my lively tour.,ModSentience2,Pound for pound%2C mountain lions eat more gentle game than wolves .,ModSentience4,I saw this place.,NoModSentience4,In the end%2C John kept his promise.,NoModSentience2,I urge all wise parishioners to come see Gus.,ModSentience4,Patrick made a distraught phone call to Tom.,ModSentience2,He knows his bees.,NoModSentience2,I had the mechanic working feverishly to get my motor replaced .,NoModSentience4,NULL
1742304662,abda418378729d84a1a46fe1f54043bc,PennController,8,0,trials,NULL,PennController,9,_Header_,End,1742304507517,648899,24,4,3,Sentience,I enjoyed my lively tour.,ModSentience2,Pound for pound%2C mountain lions eat more gentle game than wolves .,ModSentience4,I saw this place.,NoModSentience4,In the end%2C John kept his promise.,NoModSentience2,I urge all wise parishioners to come see Gus.,ModSentience4,Patrick made a distraught phone call to Tom.,ModSentience2,He knows his bees.,NoModSentience2,I had the mechanic working feverishly to get my motor replaced .,NoModSentience4,NULL
1742304662,abda418378729d84a1a46fe1f54043bc,PennController,8,0,trials,NULL,DragDrop,experimental-trials,Drag,I enjoyed my lively tour.,1742304539863,648899,24,4,3,Sentience,I enjoyed my lively tour.,ModSentience2,Pound for pound%2C mountain lions eat more gentle game than wolves .,ModSentience4,I saw this place.,NoModSentience4,In the end%2C John kept his promise.,NoModSentience2,I urge all wise parishioners to come see Gus.,ModSentience4,Patrick made a distraught phone call to Tom.,ModSentience2,He knows his bees.,NoModSentience2,I had the mechanic working feverishly to get my motor replaced .,NoModSentience4,Dropped on (4%2C 1)
1742304662,abda418378729d84a1a46fe1f54043bc,PennController,8,0,trials,NULL,DragDrop,experimental-trials,Drop,(4%2C 1),1742304541462,648899,24,4,3,Sentience,I enjoyed my lively tour.,ModSentience2,Pound for pound%2C mountain lions eat more gentle game than wolves .,ModSentience4,I saw this place.,NoModSentience4,In the end%2C John kept his promise.,NoModSentience2,I urge all wise parishioners to come see Gus.,ModSentience4,Patrick made a distraught phone call to Tom.,ModSentience2,He knows his bees.,NoModSentience2,I had the mechanic working feverishly to get my motor replaced .,NoModSentience4,Dopped I enjoyed my lively tour.
1742304662,abda418378729d84a1a46fe1f54043bc,PennController,8,0,trials,NULL,DragDrop,experimental-trials,Drag,I saw this place.,1742304542713,648899,24,4,3,Sentience,I enjoyed my lively tour.,ModSentience2,Pound for pound%2C mountain lions eat more gentle game than wolves .,ModSentience4,I saw this place.,NoModSentience4,In the end%2C John kept his promise.,NoModSentience2,I urge all wise parishioners to come see Gus.,ModSentience4,Patrick made a distraught phone call to Tom.,ModSentience2,He knows his bees.,NoModSentience2,I had the mechanic working feverishly to get my motor replaced .,NoModSentience4,Dropped on (2%2C 2)
1742304662,abda418378729d84a1a46fe1f54043bc,PennController,8,0,trials,NULL,DragDrop,experimental-trials,Drop,(2%2C 2),1742304544212,648899,24,4,3,Sentience,I enjoyed my lively tour.,ModSentience2,Pound for pound%2C mountain lions eat more gentle game than wolves .,ModSentience4,I saw this place.,NoModSentience4,In the end%2C John kept his promise.,NoModSentience2,I urge all wise parishioners to come see Gus.,ModSentience4,Patrick made a distraught phone call to Tom.,ModSentience2,He knows his bees.,NoModSentience2,I had the mechanic working feverishly to get my motor replaced .,NoModSentience4,Dopped I saw this place.
1742304662,abda418378729d84a1a46fe1f54043bc,PennController,8,0,trials,NULL,DragDrop,experimental-trials,Drag,Pound for pound%2C mountain lions eat more gentle game than wolves .,1742304557723,648899,24,4,3,Sentience,I enjoyed my lively tour.,ModSentience2,Pound for pound%2C mountain lions eat more gentle game than wolves .,ModSentience4,I saw this place.,NoModSentience4,In the end%2C John kept his promise.,NoModSentience2,I urge all wise parishioners to come see Gus.,ModSentience4,Patrick made a distraught phone call to Tom.,ModSentience2,He knows his bees.,NoModSentience2,I had the mechanic working feverishly to get my motor replaced .,NoModSentience4,Dropped on (28%2C 1)
1742304662,abda418378729d84a1a46fe1f54043bc,PennController,8,0,trials,NULL,DragDrop,experimental-trials,Drop,(28%2C 1),1742304559080,648899,24,4,3,Sentience,I enjoyed my lively tour.,ModSentience2,Pound for pound%2C mountain lions eat more gentle game than wolves .,ModSentience4,I saw this place.,NoModSentience4,In the end%2C John kept his promise.,NoModSentience2,I urge all wise parishioners to come see Gus.,ModSentience4,Patrick made a distraught phone call to Tom.,ModSentience2,He knows his bees.,NoModSentience2,I had the mechanic working feverishly to get my motor replaced .,NoModSentience4,Dopped Pound for pound%2C mountain lions eat more gentle game than wolves .
1742304662,abda418378729d84a1a46fe1f54043bc,PennController,8,0,trials,NULL,DragDrop,experimental-trials,Drag,He knows his bees.,1742304560512,648899,24,4,3,Sentience,I enjoyed my lively tour.,ModSentience2,Pound for pound%2C mountain lions eat more gentle game than wolves .,ModSentience4,I saw this place.,NoModSentience4,In the end%2C John kept his promise.,NoModSentience2,I urge all wise parishioners to come see Gus.,ModSentience4,Patrick made a distraught phone call to Tom.,ModSentience2,He knows his bees.,NoModSentience2,I had the mechanic working feverishly to get my motor replaced .,NoModSentience4,Dropped on (30%2C 1)
1742304662,abda418378729d84a1a46fe1f54043bc,PennController,8,0,trials,NULL,DragDrop,experimental-trials,Drop,(30%2C 1),1742304562627,648899,24,4,3,Sentience,I enjoyed my lively tour.,ModSentience2,Pound for pound%2C mountain lions eat more gentle game than wolves .,ModSentience4,I saw this place.,NoModSentience4,In the end%2C John kept his promise.,NoModSentience2,I urge all wise parishioners to come see Gus.,ModSentience4,Patrick made a distraught phone call to Tom.,ModSentience2,He knows his bees.,NoModSentience2,I had the mechanic working feverishly to get my motor replaced .,NoModSentience4,Dopped He knows his bees.
1742304662,abda418378729d84a1a46fe1f54043bc,PennController,8,0,trials,NULL,DragDrop,experimental-trials,Drag,I urge all wise parishioners to come see Gus.,1742304569587,648899,24,4,3,Sentience,I enjoyed my lively tour.,ModSentience2,Pound for pound%2C mountain lions eat more gentle game than wolves .,ModSentience4,I saw this place.,NoModSentience4,In the end%2C John kept his promise.,NoModSentience2,I urge all wise parishioners to come see Gus.,ModSentience4,Patrick made a distraught phone call to Tom.,ModSentience2,He knows his bees.,NoModSentience2,I had the mechanic working feverishly to get my motor replaced .,NoModSentience4,Dropped on (8%2C 13)
1742304662,abda418378729d84a1a46fe1f54043bc,PennController,8,0,trials,NULL,DragDrop,experimental-trials,Drop,(8%2C 13),1742304570841,648899,24,4,3,Sentience,I enjoyed my lively tour.,ModSentience2,Pound for pound%2C mountain lions eat more gentle game than wolves .,ModSentience4,I saw this place.,NoModSentience4,In the end%2C John kept his promise.,NoModSentience2,I urge all wise parishioners to come see Gus.,ModSentience4,Patrick made a distraught phone call to Tom.,ModSentience2,He knows his bees.,NoModSentience2,I had the mechanic working feverishly to get my motor replaced .,NoModSentience4,Dopped I urge all wise parishioners to come see Gus.
1742304662,abda418378729d84a1a46fe1f54043bc,PennController,8,0,trials,NULL,DragDrop,experimental-trials,Drag,I had the mechanic working feverishly to get my motor replaced .,1742304572170,648899,24,4,3,Sentience,I enjoyed my lively tour.,ModSentience2,Pound for pound%2C mountain lions eat more gentle game than wolves .,ModSentience4,I saw this place.,NoModSentience4,In the end%2C John kept his promise.,NoModSentience2,I urge all wise parishioners to come see Gus.,ModSentience4,Patrick made a distraught phone call to Tom.,ModSentience2,He knows his bees.,NoModSentience2,I had the mechanic working feverishly to get my motor replaced .,NoModSentience4,Dropped on (8%2C 11)
1742304662,abda418378729d84a1a46fe1f54043bc,PennController,8,0,trials,NULL,DragDrop,experimental-trials,Drop,(8%2C 11),1742304573932,648899,24,4,3,Sentience,I enjoyed my lively tour.,ModSentience2,Pound for pound%2C mountain lions eat more gentle game than wolves .,ModSentience4,I saw this place.,NoModSentience4,In the end%2C John kept his promise.,NoModSentience2,I urge all wise parishioners to come see Gus.,ModSentience4,Patrick made a distraught phone call to Tom.,ModSentience2,He knows his bees.,NoModSentience2,I had the mechanic working feverishly to get my motor replaced .,NoModSentience4,Dopped I had the mechanic working feverishly to get my motor replaced .
1742304662,abda418378729d84a1a46fe1f54043bc,PennController,8,0,trials,NULL,DragDrop,experimental-trials,Drag,In the end%2C John kept his promise.,1742304592507,648899,24,4,3,Sentience,I enjoyed my lively tour.,ModSentience2,Pound for pound%2C mountain lions eat more gentle game than wolves .,ModSentience4,I saw this place.,NoModSentience4,In the end%2C John kept his promise.,NoModSentience2,I urge all wise parishioners to come see Gus.,ModSentience4,Patrick made a distraught phone call to Tom.,ModSentience2,He knows his bees.,NoModSentience2,I had the mechanic working feverishly to get my motor replaced .,NoModSentience4,Dropped on (28%2C 12)
1742304662,abda418378729d84a1a46fe1f54043bc,PennController,8,0,trials,NULL,DragDrop,experimental-trials,Drop,(28%2C 12),1742304593376,648899,24,4,3,Sentience,I enjoyed my lively tour.,ModSentience2,Pound for pound%2C mountain lions eat more gentle game than wolves .,ModSentience4,I saw this place.,NoModSentience4,In the end%2C John kept his promise.,NoModSentience2,I urge all wise parishioners to come see Gus.,ModSentience4,Patrick made a distraught phone call to Tom.,ModSentience2,He knows his bees.,NoModSentience2,I had the mechanic working feverishly to get my motor replaced .,NoModSentience4,Dopped In the end%2C John kept his promise.
1742304662,abda418378729d84a1a46fe1f54043bc,PennController,8,0,trials,NULL,DragDrop,experimental-trials,Drag,Patrick made a distraught phone call to Tom.,1742304595687,648899,24,4,3,Sentience,I enjoyed my lively tour.,ModSentience2,Pound for pound%2C mountain lions eat more gentle game than wolves .,ModSentience4,I saw this place.,NoModSentience4,In the end%2C John kept his promise.,NoModSentience2,I urge all wise parishioners to come see Gus.,ModSentience4,Patrick made a distraught phone call to Tom.,ModSentience2,He knows his bees.,NoModSentience2,I had the mechanic working feverishly to get my motor replaced .,NoModSentience4,Dropped on (28%2C 11)
1742304662,abda418378729d84a1a46fe1f54043bc,PennController,8,0,trials,NULL,DragDrop,experimental-trials,Drop,(28%2C 11),1742304596987,648899,24,4,3,Sentience,I enjoyed my lively tour.,ModSentience2,Pound for pound%2C mountain lions eat more gentle game than wolves .,ModSentience4,I saw this place.,NoModSentience4,In the end%2C John kept his promise.,NoModSentience2,I urge all wise parishioners to come see Gus.,ModSentience4,Patrick made a distraught phone call to Tom.,ModSentience2,He knows his bees.,NoModSentience2,I had the mechanic working feverishly to get my motor replaced .,NoModSentience4,Dopped Patrick made a distraught phone call to Tom.
1742304662,abda418378729d84a1a46fe1f54043bc,PennController,8,0,trials,NULL,DragDrop,experimental-trials,Final,I enjoyed my lively tour.:(4%2C 1);Pound for pound%2C mountain lions eat more gentle game than wolves .:(28%2C 1);I saw this place.:(2%2C 2);In the end%2C John kept his promise.:(28%2C 12);I urge all wise parishioners to come see Gus.:(8%2C 13);Patrick made a distraught phone call to Tom.:(28%2C 11);He knows his bees.:(30%2C 1);I had the mechanic working feverishly to get my motor replaced .:(8%2C 11),1742304600183,648899,24,4,3,Sentience,I enjoyed my lively tour.,ModSentience2,Pound for pound%2C mountain lions eat more gentle game than wolves .,ModSentience4,I saw this place.,NoModSentience4,In the end%2C John kept his promise.,NoModSentience2,I urge all wise parishioners to come see Gus.,ModSentience4,Patrick made a distraught phone call to Tom.,ModSentience2,He knows his bees.,NoModSentience2,I had the mechanic working feverishly to get my motor replaced .,NoModSentience4,NULL
1742304662,abda418378729d84a1a46fe1f54043bc,PennController,8,0,trials,NULL,Var,subject,Final,648899,1742304600183,648899,24,4,3,Sentience,I enjoyed my lively tour.,ModSentience2,Pound for pound%2C mountain lions eat more gentle game than wolves .,ModSentience4,I saw this place.,NoModSentience4,In the end%2C John kept his promise.,NoModSentience2,I urge all wise parishioners to come see Gus.,ModSentience4,Patrick made a distraught phone call to Tom.,ModSentience2,He knows his bees.,NoModSentience2,I had the mechanic working feverishly to get my motor replaced .,NoModSentience4,Value at the end of the trial
1742304662,abda418378729d84a1a46fe1f54043bc,PennController,8,0,trials,NULL,PennController,9,_Trial_,End,1742304600183,648899,24,4,3,Sentience,I enjoyed my lively tour.,ModSentience2,Pound for pound%2C mountain lions eat more gentle game than wolves .,ModSentience4,I saw this place.,NoModSentience4,In the end%2C John kept his promise.,NoModSentience2,I urge all wise parishioners to come see Gus.,ModSentience4,Patrick made a distraught phone call to Tom.,ModSentience2,He knows his bees.,NoModSentience2,I had the mechanic working feverishly to get my motor replaced .,NoModSentience4,NULL
1742304662,abda418378729d84a1a46fe1f54043bc,PennController,9,0,trials,NULL,PennController,10,_Trial_,Start,1742304600186,648899,24,4,4,Volition,Sam used his duplicitous company to buy items useful to criminals.,ModVolition4,I encourage you to do this joyful dance.,ModVolition2,You want your dog to admire you as his pack leader%2C not fear you .,NoModVolition4,They chased the rebels out of the capital.,NoModVolition2,The president demoted the compassionate expert from his cabinet .,ModVolition2,We hauled the frantic horse to Corning.,ModVolition4,We took our cat Mitten camping .,NoModVolition2,We trust the teacher.,NoModVolition4,NULL
1742304662,abda418378729d84a1a46fe1f54043bc,PennController,9,0,trials,NULL,PennController,10,_Header_,Start,1742304600186,648899,24,4,4,Volition,Sam used his duplicitous company to buy items useful to criminals.,ModVolition4,I encourage you to do this joyful dance.,ModVolition2,You want your dog to admire you as his pack leader%2C not fear you .,NoModVolition4,They chased the rebels out of the capital.,NoModVolition2,The president demoted the compassionate expert from his cabinet .,ModVolition2,We hauled the frantic horse to Corning.,ModVolition4,We took our cat Mitten camping .,NoModVolition2,We trust the teacher.,NoModVolition4,NULL
1742304662,abda418378729d84a1a46fe1f54043bc,PennController,9,0,trials,NULL,PennController,10,_Header_,End,1742304600186,648899,24,4,4,Volition,Sam used his duplicitous company to buy items useful to criminals.,ModVolition4,I encourage you to do this joyful dance.,ModVolition2,You want your dog to admire you as his pack leader%2C not fear you .,NoModVolition4,They chased the rebels out of the capital.,NoModVolition2,The president demoted the compassionate expert from his cabinet .,ModVolition2,We hauled the frantic horse to Corning.,ModVolition4,We took our cat Mitten camping .,NoModVolition2,We trust the teacher.,NoModVolition4,NULL
1742304662,abda418378729d84a1a46fe1f54043bc,PennController,9,0,trials,NULL,DragDrop,experimental-trials,Drag,The president demoted the compassionate expert from his cabinet .,1742304614451,648899,24,4,4,Volition,Sam used his duplicitous company to buy items useful to criminals.,ModVolition4,I encourage you to do this joyful dance.,ModVolition2,You want your dog to admire you as his pack leader%2C not fear you .,NoModVolition4,They chased the rebels out of the capital.,NoModVolition2,The president demoted the compassionate expert from his cabinet .,ModVolition2,We hauled the frantic horse to Corning.,ModVolition4,We took our cat Mitten camping .,NoModVolition2,We trust the teacher.,NoModVolition4,Not dropped
1742304662,abda418378729d84a1a46fe1f54043bc,PennController,9,0,trials,NULL,DragDrop,experimental-trials,Drag,You want your dog to admire you as his pack leader%2C not fear you .,1742304615954,648899,24,4,4,Volition,Sam used his duplicitous company to buy items useful to criminals.,ModVolition4,I encourage you to do this joyful dance.,ModVolition2,You want your dog to admire you as his pack leader%2C not fear you .,NoModVolition4,They chased the rebels out of the capital.,NoModVolition2,The president demoted the compassionate expert from his cabinet .,ModVolition2,We hauled the frantic horse to Corning.,ModVolition4,We took our cat Mitten camping .,NoModVolition2,We trust the teacher.,NoModVolition4,Dropped on (31%2C 1)
1742304662,abda418378729d84a1a46fe1f54043bc,PennController,9,0,trials,NULL,DragDrop,experimental-trials,Drop,(31%2C 1),1742304618251,648899,24,4,4,Volition,Sam used his duplicitous company to buy items useful to criminals.,ModVolition4,I encourage you to do this joyful dance.,ModVolition2,You want your dog to admire you as his pack leader%2C not fear you .,NoModVolition4,They chased the rebels out of the capital.,NoModVolition2,The president demoted the compassionate expert from his cabinet .,ModVolition2,We hauled the frantic horse to Corning.,ModVolition4,We took our cat Mitten camping .,NoModVolition2,We trust the teacher.,NoModVolition4,Dopped You want your dog to admire you as his pack leader%2C not fear you .
1742304662,abda418378729d84a1a46fe1f54043bc,PennController,9,0,trials,NULL,DragDrop,experimental-trials,Drag,We hauled the frantic horse to Corning.,1742304619350,648899,24,4,4,Volition,Sam used his duplicitous company to buy items useful to criminals.,ModVolition4,I encourage you to do this joyful dance.,ModVolition2,You want your dog to admire you as his pack leader%2C not fear you .,NoModVolition4,They chased the rebels out of the capital.,NoModVolition2,The president demoted the compassionate expert from his cabinet .,ModVolition2,We hauled the frantic horse to Corning.,ModVolition4,We took our cat Mitten camping .,NoModVolition2,We trust the teacher.,NoModVolition4,Dropped on (27%2C 2)
1742304662,abda418378729d84a1a46fe1f54043bc,PennController,9,0,trials,NULL,DragDrop,experimental-trials,Drop,(27%2C 2),1742304621266,648899,24,4,4,Volition,Sam used his duplicitous company to buy items useful to criminals.,ModVolition4,I encourage you to do this joyful dance.,ModVolition2,You want your dog to admire you as his pack leader%2C not fear you .,NoModVolition4,They chased the rebels out of the capital.,NoModVolition2,The president demoted the compassionate expert from his cabinet .,ModVolition2,We hauled the frantic horse to Corning.,ModVolition4,We took our cat Mitten camping .,NoModVolition2,We trust the teacher.,NoModVolition4,Dopped We hauled the frantic horse to Corning.
1742304662,abda418378729d84a1a46fe1f54043bc,PennController,9,0,trials,NULL,DragDrop,experimental-trials,Drag,We took our cat Mitten camping .,1742304626718,648899,24,4,4,Volition,Sam used his duplicitous company to buy items useful to criminals.,ModVolition4,I encourage you to do this joyful dance.,ModVolition2,You want your dog to admire you as his pack leader%2C not fear you .,NoModVolition4,They chased the rebels out of the capital.,NoModVolition2,The president demoted the compassionate expert from his cabinet .,ModVolition2,We hauled the frantic horse to Corning.,ModVolition4,We took our cat Mitten camping .,NoModVolition2,We trust the teacher.,NoModVolition4,Dropped on (30%2C 2)
1742304662,abda418378729d84a1a46fe1f54043bc,PennController,9,0,trials,NULL,DragDrop,experimental-trials,Drop,(30%2C 2),1742304629034,648899,24,4,4,Volition,Sam used his duplicitous company to buy items useful to criminals.,ModVolition4,I encourage you to do this joyful dance.,ModVolition2,You want your dog to admire you as his pack leader%2C not fear you .,NoModVolition4,They chased the rebels out of the capital.,NoModVolition2,The president demoted the compassionate expert from his cabinet .,ModVolition2,We hauled the frantic horse to Corning.,ModVolition4,We took our cat Mitten camping .,NoModVolition2,We trust the teacher.,NoModVolition4,Dopped We took our cat Mitten camping .
1742304662,abda418378729d84a1a46fe1f54043bc,PennController,9,0,trials,NULL,DragDrop,experimental-trials,Drag,Sam used his duplicitous company to buy items useful to criminals.,1742304637485,648899,24,4,4,Volition,Sam used his duplicitous company to buy items useful to criminals.,ModVolition4,I encourage you to do this joyful dance.,ModVolition2,You want your dog to admire you as his pack leader%2C not fear you .,NoModVolition4,They chased the rebels out of the capital.,NoModVolition2,The president demoted the compassionate expert from his cabinet .,ModVolition2,We hauled the frantic horse to Corning.,ModVolition4,We took our cat Mitten camping .,NoModVolition2,We trust the teacher.,NoModVolition4,Dropped on (11%2C 1)
1742304662,abda418378729d84a1a46fe1f54043bc,PennController,9,0,trials,NULL,DragDrop,experimental-trials,Drop,(11%2C 1),1742304639129,648899,24,4,4,Volition,Sam used his duplicitous company to buy items useful to criminals.,ModVolition4,I encourage you to do this joyful dance.,ModVolition2,You want your dog to admire you as his pack leader%2C not fear you .,NoModVolition4,They chased the rebels out of the capital.,NoModVolition2,The president demoted the compassionate expert from his cabinet .,ModVolition2,We hauled the frantic horse to Corning.,ModVolition4,We took our cat Mitten camping .,NoModVolition2,We trust the teacher.,NoModVolition4,Dopped Sam used his duplicitous company to buy items useful to criminals.
1742304662,abda418378729d84a1a46fe1f54043bc,PennController,9,0,trials,NULL,DragDrop,experimental-trials,Drag,They chased the rebels out of the capital.,1742304641477,648899,24,4,4,Volition,Sam used his duplicitous company to buy items useful to criminals.,ModVolition4,I encourage you to do this joyful dance.,ModVolition2,You want your dog to admire you as his pack leader%2C not fear you .,NoModVolition4,They chased the rebels out of the capital.,NoModVolition2,The president demoted the compassionate expert from his cabinet .,ModVolition2,We hauled the frantic horse to Corning.,ModVolition4,We took our cat Mitten camping .,NoModVolition2,We trust the teacher.,NoModVolition4,Dropped on (3%2C 2)
1742304662,abda418378729d84a1a46fe1f54043bc,PennController,9,0,trials,NULL,DragDrop,experimental-trials,Drop,(3%2C 2),1742304643565,648899,24,4,4,Volition,Sam used his duplicitous company to buy items useful to criminals.,ModVolition4,I encourage you to do this joyful dance.,ModVolition2,You want your dog to admire you as his pack leader%2C not fear you .,NoModVolition4,They chased the rebels out of the capital.,NoModVolition2,The president demoted the compassionate expert from his cabinet .,ModVolition2,We hauled the frantic horse to Corning.,ModVolition4,We took our cat Mitten camping .,NoModVolition2,We trust the teacher.,NoModVolition4,Dopped They chased the rebels out of the capital.
1742304662,abda418378729d84a1a46fe1f54043bc,PennController,9,0,trials,NULL,DragDrop,experimental-trials,Drag,I encourage you to do this joyful dance.,1742304647877,648899,24,4,4,Volition,Sam used his duplicitous company to buy items useful to criminals.,ModVolition4,I encourage you to do this joyful dance.,ModVolition2,You want your dog to admire you as his pack leader%2C not fear you .,NoModVolition4,They chased the rebels out of the capital.,NoModVolition2,The president demoted the compassionate expert from his cabinet .,ModVolition2,We hauled the frantic horse to Corning.,ModVolition4,We took our cat Mitten camping .,NoModVolition2,We trust the teacher.,NoModVolition4,Dropped on (23%2C 12)
1742304662,abda418378729d84a1a46fe1f54043bc,PennController,9,0,trials,NULL,DragDrop,experimental-trials,Drop,(23%2C 12),1742304648648,648899,24,4,4,Volition,Sam used his duplicitous company to buy items useful to criminals.,ModVolition4,I encourage you to do this joyful dance.,ModVolition2,You want your dog to admire you as his pack leader%2C not fear you .,NoModVolition4,They chased the rebels out of the capital.,NoModVolition2,The president demoted the compassionate expert from his cabinet .,ModVolition2,We hauled the frantic horse to Corning.,ModVolition4,We took our cat Mitten camping .,NoModVolition2,We trust the teacher.,NoModVolition4,Dopped I encourage you to do this joyful dance.
1742304662,abda418378729d84a1a46fe1f54043bc,PennController,9,0,trials,NULL,DragDrop,experimental-trials,Drag,We trust the teacher.,1742304649961,648899,24,4,4,Volition,Sam used his duplicitous company to buy items useful to criminals.,ModVolition4,I encourage you to do this joyful dance.,ModVolition2,You want your dog to admire you as his pack leader%2C not fear you .,NoModVolition4,They chased the rebels out of the capital.,NoModVolition2,The president demoted the compassionate expert from his cabinet .,ModVolition2,We hauled the frantic horse to Corning.,ModVolition4,We took our cat Mitten camping .,NoModVolition2,We trust the teacher.,NoModVolition4,Dropped on (22%2C 13)
1742304662,abda418378729d84a1a46fe1f54043bc,PennController,9,0,trials,NULL,DragDrop,experimental-trials,Drop,(22%2C 13),1742304650881,648899,24,4,4,Volition,Sam used his duplicitous company to buy items useful to criminals.,ModVolition4,I encourage you to do this joyful dance.,ModVolition2,You want your dog to admire you as his pack leader%2C not fear you .,NoModVolition4,They chased the rebels out of the capital.,NoModVolition2,The president demoted the compassionate expert from his cabinet .,ModVolition2,We hauled the frantic horse to Corning.,ModVolition4,We took our cat Mitten camping .,NoModVolition2,We trust the teacher.,NoModVolition4,Dopped We trust the teacher.
1742304662,abda418378729d84a1a46fe1f54043bc,PennController,9,0,trials,NULL,DragDrop,experimental-trials,Drag,We trust the teacher.,1742304652084,648899,24,4,4,Volition,Sam used his duplicitous company to buy items useful to criminals.,ModVolition4,I encourage you to do this joyful dance.,ModVolition2,You want your dog to admire you as his pack leader%2C not fear you .,NoModVolition4,They chased the rebels out of the capital.,NoModVolition2,The president demoted the compassionate expert from his cabinet .,ModVolition2,We hauled the frantic horse to Corning.,ModVolition4,We took our cat Mitten camping .,NoModVolition2,We trust the teacher.,NoModVolition4,Dropped on (25%2C 13)
1742304662,abda418378729d84a1a46fe1f54043bc,PennController,9,0,trials,NULL,DragDrop,experimental-trials,Drop,(25%2C 13),1742304652846,648899,24,4,4,Volition,Sam used his duplicitous company to buy items useful to criminals.,ModVolition4,I encourage you to do this joyful dance.,ModVolition2,You want your dog to admire you as his pack leader%2C not fear you .,NoModVolition4,They chased the rebels out of the capital.,NoModVolition2,The president demoted the compassionate expert from his cabinet .,ModVolition2,We hauled the frantic horse to Corning.,ModVolition4,We took our cat Mitten camping .,NoModVolition2,We trust the teacher.,NoModVolition4,Dopped We trust the teacher.
1742304662,abda418378729d84a1a46fe1f54043bc,PennController,9,0,trials,NULL,DragDrop,experimental-trials,Drag,The president demoted the compassionate expert from his cabinet .,1742304654045,648899,24,4,4,Volition,Sam used his duplicitous company to buy items useful to criminals.,ModVolition4,I encourage you to do this joyful dance.,ModVolition2,You want your dog to admire you as his pack leader%2C not fear you .,NoModVolition4,They chased the rebels out of the capital.,NoModVolition2,The president demoted the compassionate expert from his cabinet .,ModVolition2,We hauled the frantic horse to Corning.,ModVolition4,We took our cat Mitten camping .,NoModVolition2,We trust the teacher.,NoModVolition4,Dropped on (6%2C 5)
1742304662,abda418378729d84a1a46fe1f54043bc,PennController,9,0,trials,NULL,DragDrop,experimental-trials,Drop,(6%2C 5),1742304656914,648899,24,4,4,Volition,Sam used his duplicitous company to buy items useful to criminals.,ModVolition4,I encourage you to do this joyful dance.,ModVolition2,You want your dog to admire you as his pack leader%2C not fear you .,NoModVolition4,They chased the rebels out of the capital.,NoModVolition2,The president demoted the compassionate expert from his cabinet .,ModVolition2,We hauled the frantic horse to Corning.,ModVolition4,We took our cat Mitten camping .,NoModVolition2,We trust the teacher.,NoModVolition4,Dopped The president demoted the compassionate expert from his cabinet .
1742304662,abda418378729d84a1a46fe1f54043bc,PennController,9,0,trials,NULL,DragDrop,experimental-trials,Final,Sam used his duplicitous company to buy items useful to criminals.:(11%2C 1);I encourage you to do this joyful dance.:(23%2C 12);You want your dog to admire you as his pack leader%2C not fear you .:(31%2C 1);They chased the rebels out of the capital.:(3%2C 2);The president demoted the compassionate expert from his cabinet .:(6%2C 5);We hauled the frantic horse to Corning.:(27%2C 2);We took our cat Mitten camping .:(30%2C 2);We trust the teacher.:(25%2C 13),1742304659025,648899,24,4,4,Volition,Sam used his duplicitous company to buy items useful to criminals.,ModVolition4,I encourage you to do this joyful dance.,ModVolition2,You want your dog to admire you as his pack leader%2C not fear you .,NoModVolition4,They chased the rebels out of the capital.,NoModVolition2,The president demoted the compassionate expert from his cabinet .,ModVolition2,We hauled the frantic horse to Corning.,ModVolition4,We took our cat Mitten camping .,NoModVolition2,We trust the teacher.,NoModVolition4,NULL
1742304662,abda418378729d84a1a46fe1f54043bc,PennController,9,0,trials,NULL,Var,subject,Final,648899,1742304659025,648899,24,4,4,Volition,Sam used his duplicitous company to buy items useful to criminals.,ModVolition4,I encourage you to do this joyful dance.,ModVolition2,You want your dog to admire you as his pack leader%2C not fear you .,NoModVolition4,They chased the rebels out of the capital.,NoModVolition2,The president demoted the compassionate expert from his cabinet .,ModVolition2,We hauled the frantic horse to Corning.,ModVolition4,We took our cat Mitten camping .,NoModVolition2,We trust the teacher.,NoModVolition4,Value at the end of the trial
1742304662,abda418378729d84a1a46fe1f54043bc,PennController,9,0,trials,NULL,PennController,10,_Trial_,End,1742304659025,648899,24,4,4,Volition,Sam used his duplicitous company to buy items useful to criminals.,ModVolition4,I encourage you to do this joyful dance.,ModVolition2,You want your dog to admire you as his pack leader%2C not fear you .,NoModVolition4,They chased the rebels out of the capital.,NoModVolition2,The president demoted the compassionate expert from his cabinet .,ModVolition2,We hauled the frantic horse to Corning.,ModVolition4,We took our cat Mitten camping .,NoModVolition2,We trust the teacher.,NoModVolition4,NULL
# 15. Comments.
1742304662,abda418378729d84a1a46fe1f54043bc,PennController,10,0,manager,NULL,PennController,5,_Trial_,Start,1742304659028,648899,24,NULL
1742304662,abda418378729d84a1a46fe1f54043bc,PennController,10,0,manager,NULL,PennController,5,_Header_,Start,1742304659028,648899,24,NULL
1742304662,abda418378729d84a1a46fe1f54043bc,PennController,10,0,manager,NULL,PennController,5,_Header_,End,1742304659028,648899,24,NULL
1742304662,abda418378729d84a1a46fe1f54043bc,PennController,10,0,manager,NULL,TextInput,feed,Final,Please leave your feedback comments here.,1742304661299,648899,24,NULL
1742304662,abda418378729d84a1a46fe1f54043bc,PennController,10,0,manager,NULL,Var,subject,Final,648899,1742304661300,648899,24,Value at the end of the trial
1742304662,abda418378729d84a1a46fe1f54043bc,PennController,10,0,manager,NULL,PennController,5,_Trial_,End,1742304661300,648899,24,NULL
#
# Results on Tue, 18 Mar 2025 13:32:42 GMT
# USER AGENT: Mozilla/5.0 (Windows NT 10.0; Win64; x64) AppleWebKit/537.36 (KHTML, like Gecko) Chrome/134.0.0.0 Safari/537.36
# Design number was non-random = 1
#
# Columns below this comment are as follows:
# 1. Results reception time.
# 2. MD5 hash of participant's IP address.
# 3. Controller name.
# 4. Order number of item.
# 5. Inner element number.
# 6. Label.
# 7. Latin Square Group.
# 8. PennElementType.
# 9. PennElementName.
# 10. Parameter.
# 11. Value.
# 12. EventTime.
# 13. Subject.
# 14. age.
# 15. Comments.
1742304762,32ab20bbeccaa48346503c065698e438,PennController,1,0,Prolific-ID,NULL,PennController,0,_Trial_,Start,1742304217542,207112,undefined,NULL
1742304762,32ab20bbeccaa48346503c065698e438,PennController,1,0,Prolific-ID,NULL,PennController,0,_Header_,Start,1742304217542,207112,undefined,NULL
1742304762,32ab20bbeccaa48346503c065698e438,PennController,1,0,Prolific-ID,NULL,PennController,0,_Header_,End,1742304217542,207112,undefined,NULL
1742304762,32ab20bbeccaa48346503c065698e438,PennController,1,0,Prolific-ID,NULL,TextInput,Pro-ID-input,First,,1742304223271,207112,undefined,Control
1742304762,32ab20bbeccaa48346503c065698e438,PennController,1,0,Prolific-ID,NULL,TextInput,Pro-ID-input,EnterReturn,67d86290a2be1370fc1e4083,1742304245698,207112,undefined,NULL
1742304762,32ab20bbeccaa48346503c065698e438,PennController,1,0,Prolific-ID,NULL,Var,subject,Final,207112,1742304245699,207112,undefined,Value at the end of the trial
1742304762,32ab20bbeccaa48346503c065698e438,PennController,1,0,Prolific-ID,NULL,TextInput,Pro-ID-input,Final,67d86290a2be1370fc1e4083,1742304245700,207112,undefined,NULL
1742304762,32ab20bbeccaa48346503c065698e438,PennController,1,0,Prolific-ID,NULL,PennController,0,_Trial_,End,1742304245700,207112,undefined,NULL
1742304762,32ab20bbeccaa48346503c065698e438,PennController,2,0,consent,NULL,PennController,1,_Trial_,Start,1742304245702,207112,undefined,NULL
1742304762,32ab20bbeccaa48346503c065698e438,PennController,2,0,consent,NULL,PennController,1,_Header_,Start,1742304245702,207112,undefined,NULL
1742304762,32ab20bbeccaa48346503c065698e438,PennController,2,0,consent,NULL,PennController,1,_Header_,End,1742304245702,207112,undefined,NULL
1742304762,32ab20bbeccaa48346503c065698e438,PennController,2,0,consent,NULL,Var,subject,Final,207112,1742304250299,207112,undefined,Value at the end of the trial
1742304762,32ab20bbeccaa48346503c065698e438,PennController,2,0,consent,NULL,PennController,1,_Trial_,End,1742304250299,207112,undefined,NULL
1742304762,32ab20bbeccaa48346503c065698e438,PennController,3,0,background,NULL,PennController,2,_Trial_,Start,1742304250301,207112,33,NULL
1742304762,32ab20bbeccaa48346503c065698e438,PennController,3,0,background,NULL,PennController,2,_Header_,Start,1742304250301,207112,33,NULL
1742304762,32ab20bbeccaa48346503c065698e438,PennController,3,0,background,NULL,PennController,2,_Header_,End,1742304250301,207112,33,NULL
1742304762,32ab20bbeccaa48346503c065698e438,PennController,3,0,background,NULL,Selector,L1-selector,Selection,y,1742304255984,207112,33,y;n
1742304762,32ab20bbeccaa48346503c065698e438,PennController,3,0,background,NULL,TextInput,input_age,First,,1742304259473,207112,33,3
1742304762,32ab20bbeccaa48346503c065698e438,PennController,3,0,background,NULL,TextInput,input_age,EnterReturn,33,1742304263502,207112,33,NULL
1742304762,32ab20bbeccaa48346503c065698e438,PennController,3,0,background,NULL,TextInput,input_age,Final,33,1742304263504,207112,33,NULL
1742304762,32ab20bbeccaa48346503c065698e438,PennController,3,0,background,NULL,Var,subject,Final,207112,1742304263504,207112,33,Value at the end of the trial
1742304762,32ab20bbeccaa48346503c065698e438,PennController,3,0,background,NULL,PennController,2,_Trial_,End,1742304263504,207112,33,NULL
1742304762,32ab20bbeccaa48346503c065698e438,PennController,4,0,instructions,NULL,PennController,3,_Trial_,Start,1742304263506,207112,33,NULL
1742304762,32ab20bbeccaa48346503c065698e438,PennController,4,0,instructions,NULL,PennController,3,_Header_,Start,1742304263507,207112,33,NULL
1742304762,32ab20bbeccaa48346503c065698e438,PennController,4,0,instructions,NULL,PennController,3,_Header_,End,1742304263507,207112,33,NULL
1742304762,32ab20bbeccaa48346503c065698e438,PennController,4,0,instructions,NULL,Var,subject,Final,207112,1742304265168,207112,33,Value at the end of the trial
1742304762,32ab20bbeccaa48346503c065698e438,PennController,4,0,instructions,NULL,PennController,3,_Trial_,End,1742304265168,207112,33,NULL
1742304762,32ab20bbeccaa48346503c065698e438,PennController,5,0,demo-trial,NULL,PennController,4,_Trial_,Start,1742304265170,207112,33,NULL
1742304762,32ab20bbeccaa48346503c065698e438,PennController,5,0,demo-trial,NULL,PennController,4,_Header_,Start,1742304265170,207112,33,NULL
1742304762,32ab20bbeccaa48346503c065698e438,PennController,5,0,demo-trial,NULL,PennController,4,_Header_,End,1742304265170,207112,33,NULL
1742304762,32ab20bbeccaa48346503c065698e438,PennController,5,0,demo-trial,NULL,DragDrop,pt-1,Drag,He loves the fluffy dog.,1742304293619,207112,33,Dropped on (22%2C 14)
1742304762,32ab20bbeccaa48346503c065698e438,PennController,5,0,demo-trial,NULL,DragDrop,pt-1,Drop,(22%2C 14),1742304293761,207112,33,Dopped He loves the fluffy dog.
1742304762,32ab20bbeccaa48346503c065698e438,PennController,5,0,demo-trial,NULL,DragDrop,pt-1,Drag,I smelled the rose next to the house.,1742304303897,207112,33,Dropped on (9%2C 14)
1742304762,32ab20bbeccaa48346503c065698e438,PennController,5,0,demo-trial,NULL,DragDrop,pt-1,Drop,(9%2C 14),1742304304056,207112,33,Dopped I smelled the rose next to the house.
1742304762,32ab20bbeccaa48346503c065698e438,PennController,5,0,demo-trial,NULL,DragDrop,pt-1,Drag,They have a cat in the carrier.,1742304311124,207112,33,Dropped on (6%2C 14)
1742304762,32ab20bbeccaa48346503c065698e438,PennController,5,0,demo-trial,NULL,DragDrop,pt-1,Drop,(6%2C 14),1742304311254,207112,33,Dopped They have a cat in the carrier.
1742304762,32ab20bbeccaa48346503c065698e438,PennController,5,0,demo-trial,NULL,DragDrop,pt-1,Drag,They have a cat in the carrier.,1742304314229,207112,33,Not dropped
1742304762,32ab20bbeccaa48346503c065698e438,PennController,5,0,demo-trial,NULL,DragDrop,pt-1,Drag,They have a cat in the carrier.,1742304315109,207112,33,Not dropped
1742304762,32ab20bbeccaa48346503c065698e438,PennController,5,0,demo-trial,NULL,DragDrop,pt-1,Drag,They have a cat in the carrier.,1742304318255,207112,33,Not dropped
1742304762,32ab20bbeccaa48346503c065698e438,PennController,5,0,demo-trial,NULL,DragDrop,pt-1,Drag,You saw the sunflower yesterday.,1742304321121,207112,33,Dropped on reservoir2
1742304762,32ab20bbeccaa48346503c065698e438,PennController,5,0,demo-trial,NULL,DragDrop,pt-1,Drop,reservoir2,1742304321207,207112,33,Dopped You saw the sunflower yesterday.
1742304762,32ab20bbeccaa48346503c065698e438,PennController,5,0,demo-trial,NULL,DragDrop,pt-1,Drag,You saw the sunflower yesterday.,1742304353146,207112,33,Dropped on (28%2C 3)
1742304762,32ab20bbeccaa48346503c065698e438,PennController,5,0,demo-trial,NULL,DragDrop,pt-1,Drop,(28%2C 3),1742304355487,207112,33,Dopped You saw the sunflower yesterday.
1742304762,32ab20bbeccaa48346503c065698e438,PennController,5,0,demo-trial,NULL,DragDrop,pt-1,Drag,They have a cat in the carrier.,1742304358747,207112,33,Not dropped
1742304762,32ab20bbeccaa48346503c065698e438,PennController,5,0,demo-trial,NULL,DragDrop,pt-1,Drag,They have a cat in the carrier.,1742304359663,207112,33,Dropped on (7%2C 3)
1742304762,32ab20bbeccaa48346503c065698e438,PennController,5,0,demo-trial,NULL,DragDrop,pt-1,Drop,(7%2C 3),1742304360598,207112,33,Dopped They have a cat in the carrier.
1742304762,32ab20bbeccaa48346503c065698e438,PennController,5,0,demo-trial,NULL,DragDrop,pt-1,Drag,He loves the fluffy dog.,1742304367198,207112,33,Dropped on (21%2C 14)
1742304762,32ab20bbeccaa48346503c065698e438,PennController,5,0,demo-trial,NULL,DragDrop,pt-1,Drop,(21%2C 14),1742304367285,207112,33,Dopped He loves the fluffy dog.
1742304762,32ab20bbeccaa48346503c065698e438,PennController,5,0,demo-trial,NULL,DragDrop,pt-1,Drag,He loves the fluffy dog.,1742304367379,207112,33,Dropped on (21%2C 14)
1742304762,32ab20bbeccaa48346503c065698e438,PennController,5,0,demo-trial,NULL,DragDrop,pt-1,Drop,(21%2C 14),1742304367394,207112,33,Dopped He loves the fluffy dog.
1742304762,32ab20bbeccaa48346503c065698e438,PennController,5,0,demo-trial,NULL,DragDrop,pt-1,Drag,He loves the fluffy dog.,1742304367787,207112,33,Dropped on (21%2C 14)
1742304762,32ab20bbeccaa48346503c065698e438,PennController,5,0,demo-trial,NULL,DragDrop,pt-1,Drop,(21%2C 14),1742304367910,207112,33,Dopped He loves the fluffy dog.
1742304762,32ab20bbeccaa48346503c065698e438,PennController,5,0,demo-trial,NULL,DragDrop,pt-1,Drag,He loves the fluffy dog.,1742304368487,207112,33,Dropped on (14%2C 3)
1742304762,32ab20bbeccaa48346503c065698e438,PennController,5,0,demo-trial,NULL,DragDrop,pt-1,Drop,(14%2C 3),1742304370883,207112,33,Dopped He loves the fluffy dog.
1742304762,32ab20bbeccaa48346503c065698e438,PennController,5,0,demo-trial,NULL,DragDrop,pt-1,Drag,I smelled the rose next to the house.,1742304391272,207112,33,Dropped on (7%2C 13)
1742304762,32ab20bbeccaa48346503c065698e438,PennController,5,0,demo-trial,NULL,DragDrop,pt-1,Drop,(7%2C 13),1742304391612,207112,33,Dopped I smelled the rose next to the house.
1742304762,32ab20bbeccaa48346503c065698e438,PennController,5,0,demo-trial,NULL,DragDrop,pt-1,Drag,I smelled the rose next to the house.,1742304392403,207112,33,Dropped on (8%2C 6)
1742304762,32ab20bbeccaa48346503c065698e438,PennController,5,0,demo-trial,NULL,DragDrop,pt-1,Drop,(8%2C 6),1742304394116,207112,33,Dopped I smelled the rose next to the house.
1742304762,32ab20bbeccaa48346503c065698e438,PennController,5,0,demo-trial,NULL,DragDrop,pt-1,Drag,He loves the fluffy dog.,1742304399409,207112,33,Dropped on (9%2C 3)
1742304762,32ab20bbeccaa48346503c065698e438,PennController,5,0,demo-trial,NULL,DragDrop,pt-1,Drop,(9%2C 3),1742304400478,207112,33,Dopped He loves the fluffy dog.
1742304762,32ab20bbeccaa48346503c065698e438,PennController,5,0,demo-trial,NULL,DragDrop,pt-1,Drag,I smelled the rose next to the house.,1742304401524,207112,33,Dropped on (15%2C 8)
1742304762,32ab20bbeccaa48346503c065698e438,PennController,5,0,demo-trial,NULL,DragDrop,pt-1,Drop,(15%2C 8),1742304402358,207112,33,Dopped I smelled the rose next to the house.
1742304762,32ab20bbeccaa48346503c065698e438,PennController,5,0,demo-trial,NULL,DragDrop,pt-1,Drag,He loves the fluffy dog.,1742304403210,207112,33,Dropped on (6%2C 7)
1742304762,32ab20bbeccaa48346503c065698e438,PennController,5,0,demo-trial,NULL,DragDrop,pt-1,Drop,(6%2C 7),1742304406826,207112,33,Dopped He loves the fluffy dog.
1742304762,32ab20bbeccaa48346503c065698e438,PennController,5,0,demo-trial,NULL,DragDrop,pt-1,Drag,I smelled the rose next to the house.,1742304408788,207112,33,Dropped on (27%2C 6)
1742304762,32ab20bbeccaa48346503c065698e438,PennController,5,0,demo-trial,NULL,DragDrop,pt-1,Drop,(27%2C 6),1742304411215,207112,33,Dopped I smelled the rose next to the house.
1742304762,32ab20bbeccaa48346503c065698e438,PennController,5,0,demo-trial,NULL,DragDrop,pt-1,Drag,I smelled the rose next to the house.,1742304412885,207112,33,Dropped on (27%2C 7)
1742304762,32ab20bbeccaa48346503c065698e438,PennController,5,0,demo-trial,NULL,DragDrop,pt-1,Drop,(27%2C 7),1742304412896,207112,33,Dopped I smelled the rose next to the house.
1742304762,32ab20bbeccaa48346503c065698e438,PennController,5,0,demo-trial,NULL,DragDrop,pt-1,Drag,I smelled the rose next to the house.,1742304413217,207112,33,Dropped on (27%2C 7)
1742304762,32ab20bbeccaa48346503c065698e438,PennController,5,0,demo-trial,NULL,DragDrop,pt-1,Drop,(27%2C 7),1742304413286,207112,33,Dopped I smelled the rose next to the house.
1742304762,32ab20bbeccaa48346503c065698e438,PennController,5,0,demo-trial,NULL,DragDrop,pt-1,Drag,I smelled the rose next to the house.,1742304413737,207112,33,Dropped on (27%2C 6)
1742304762,32ab20bbeccaa48346503c065698e438,PennController,5,0,demo-trial,NULL,DragDrop,pt-1,Drop,(27%2C 6),1742304414488,207112,33,Dopped I smelled the rose next to the house.
1742304762,32ab20bbeccaa48346503c065698e438,PennController,5,0,demo-trial,NULL,DragDrop,pt-1,Final,I smelled the rose next to the house.:(27%2C 6);He loves the fluffy dog.:(6%2C 7);They have a cat in the carrier.:(7%2C 3);You saw the sunflower yesterday.:(28%2C 3),1742304419477,207112,33,NULL
1742304762,32ab20bbeccaa48346503c065698e438,PennController,5,0,demo-trial,NULL,Var,subject,Final,207112,1742304419477,207112,33,Value at the end of the trial
1742304762,32ab20bbeccaa48346503c065698e438,PennController,5,0,demo-trial,NULL,PennController,4,_Trial_,End,1742304419477,207112,33,NULL
# 15. group.
# 16. item.
# 17. itemCond.
# 18. Sentence1.
# 19. Sentence1Cond.
# 20. Sentence2.
# 21. Sentence2Cond.
# 22. Sentence3.
# 23. Sentence3Cond.
# 24. Sentence4.
# 25. Sentence4Cond.
# 26. Sentence5.
# 27. Sentence5Cond.
# 28. Sentence6.
# 29. Sentence6Cond.
# 30. Sentence7.
# 31. Sentence7Cond.
# 32. Sentence8.
# 33. Sentence8Cond.
# 34. Comments.
1742304762,32ab20bbeccaa48346503c065698e438,PennController,6,0,trials,NULL,PennController,7,_Trial_,Start,1742304419487,207112,33,2,1,Awareness,Ben made another happy announcement on March 28.,ModAware2,I e-mailed your assistant earlier this morning .,NoModAware4,He had this habit of telling you everything.,NoModAware2,Dignitaries condemn the rebellious act.,ModAware4,I put my angry foot in the cool water.,ModAware4,Jane calls the bluff. ,NoModAware2,Dr. Hart killed our pet.,NoModAware4,She loves playful giraffes.,ModAware2,NULL
1742304762,32ab20bbeccaa48346503c065698e438,PennController,6,0,trials,NULL,PennController,7,_Header_,Start,1742304419487,207112,33,2,1,Awareness,Ben made another happy announcement on March 28.,ModAware2,I e-mailed your assistant earlier this morning .,NoModAware4,He had this habit of telling you everything.,NoModAware2,Dignitaries condemn the rebellious act.,ModAware4,I put my angry foot in the cool water.,ModAware4,Jane calls the bluff. ,NoModAware2,Dr. Hart killed our pet.,NoModAware4,She loves playful giraffes.,ModAware2,NULL
1742304762,32ab20bbeccaa48346503c065698e438,PennController,6,0,trials,NULL,PennController,7,_Header_,End,1742304419487,207112,33,2,1,Awareness,Ben made another happy announcement on March 28.,ModAware2,I e-mailed your assistant earlier this morning .,NoModAware4,He had this habit of telling you everything.,NoModAware2,Dignitaries condemn the rebellious act.,ModAware4,I put my angry foot in the cool water.,ModAware4,Jane calls the bluff. ,NoModAware2,Dr. Hart killed our pet.,NoModAware4,She loves playful giraffes.,ModAware2,NULL
1742304762,32ab20bbeccaa48346503c065698e438,PennController,6,0,trials,NULL,DragDrop,experimental-trials,Drag,Ben made another happy announcement on March 28.,1742304432053,207112,33,2,1,Awareness,Ben made another happy announcement on March 28.,ModAware2,I e-mailed your assistant earlier this morning .,NoModAware4,He had this habit of telling you everything.,NoModAware2,Dignitaries condemn the rebellious act.,ModAware4,I put my angry foot in the cool water.,ModAware4,Jane calls the bluff. ,NoModAware2,Dr. Hart killed our pet.,NoModAware4,She loves playful giraffes.,ModAware2,Dropped on (3%2C 1)
1742304762,32ab20bbeccaa48346503c065698e438,PennController,6,0,trials,NULL,DragDrop,experimental-trials,Drop,(3%2C 1),1742304433589,207112,33,2,1,Awareness,Ben made another happy announcement on March 28.,ModAware2,I e-mailed your assistant earlier this morning .,NoModAware4,He had this habit of telling you everything.,NoModAware2,Dignitaries condemn the rebellious act.,ModAware4,I put my angry foot in the cool water.,ModAware4,Jane calls the bluff. ,NoModAware2,Dr. Hart killed our pet.,NoModAware4,She loves playful giraffes.,ModAware2,Dopped Ben made another happy announcement on March 28.
1742304762,32ab20bbeccaa48346503c065698e438,PennController,6,0,trials,NULL,DragDrop,experimental-trials,Drag,Ben made another happy announcement on March 28.,1742304433689,207112,33,2,1,Awareness,Ben made another happy announcement on March 28.,ModAware2,I e-mailed your assistant earlier this morning .,NoModAware4,He had this habit of telling you everything.,NoModAware2,Dignitaries condemn the rebellious act.,ModAware4,I put my angry foot in the cool water.,ModAware4,Jane calls the bluff. ,NoModAware2,Dr. Hart killed our pet.,NoModAware4,She loves playful giraffes.,ModAware2,Dropped on (3%2C 1)
1742304762,32ab20bbeccaa48346503c065698e438,PennController,6,0,trials,NULL,DragDrop,experimental-trials,Drop,(3%2C 1),1742304433851,207112,33,2,1,Awareness,Ben made another happy announcement on March 28.,ModAware2,I e-mailed your assistant earlier this morning .,NoModAware4,He had this habit of telling you everything.,NoModAware2,Dignitaries condemn the rebellious act.,ModAware4,I put my angry foot in the cool water.,ModAware4,Jane calls the bluff. ,NoModAware2,Dr. Hart killed our pet.,NoModAware4,She loves playful giraffes.,ModAware2,Dopped Ben made another happy announcement on March 28.
1742304762,32ab20bbeccaa48346503c065698e438,PennController,6,0,trials,NULL,DragDrop,experimental-trials,Drag,Ben made another happy announcement on March 28.,1742304433856,207112,33,2,1,Awareness,Ben made another happy announcement on March 28.,ModAware2,I e-mailed your assistant earlier this morning .,NoModAware4,He had this habit of telling you everything.,NoModAware2,Dignitaries condemn the rebellious act.,ModAware4,I put my angry foot in the cool water.,ModAware4,Jane calls the bluff. ,NoModAware2,Dr. Hart killed our pet.,NoModAware4,She loves playful giraffes.,ModAware2,Dropped on (3%2C 1)
1742304762,32ab20bbeccaa48346503c065698e438,PennController,6,0,trials,NULL,DragDrop,experimental-trials,Drop,(3%2C 1),1742304434365,207112,33,2,1,Awareness,Ben made another happy announcement on March 28.,ModAware2,I e-mailed your assistant earlier this morning .,NoModAware4,He had this habit of telling you everything.,NoModAware2,Dignitaries condemn the rebellious act.,ModAware4,I put my angry foot in the cool water.,ModAware4,Jane calls the bluff. ,NoModAware2,Dr. Hart killed our pet.,NoModAware4,She loves playful giraffes.,ModAware2,Dopped Ben made another happy announcement on March 28.
1742304762,32ab20bbeccaa48346503c065698e438,PennController,6,0,trials,NULL,DragDrop,experimental-trials,Drag,He had this habit of telling you everything.,1742304439326,207112,33,2,1,Awareness,Ben made another happy announcement on March 28.,ModAware2,I e-mailed your assistant earlier this morning .,NoModAware4,He had this habit of telling you everything.,NoModAware2,Dignitaries condemn the rebellious act.,ModAware4,I put my angry foot in the cool water.,ModAware4,Jane calls the bluff. ,NoModAware2,Dr. Hart killed our pet.,NoModAware4,She loves playful giraffes.,ModAware2,Dropped on (3%2C 5)
1742304762,32ab20bbeccaa48346503c065698e438,PennController,6,0,trials,NULL,DragDrop,experimental-trials,Drop,(3%2C 5),1742304440715,207112,33,2,1,Awareness,Ben made another happy announcement on March 28.,ModAware2,I e-mailed your assistant earlier this morning .,NoModAware4,He had this habit of telling you everything.,NoModAware2,Dignitaries condemn the rebellious act.,ModAware4,I put my angry foot in the cool water.,ModAware4,Jane calls the bluff. ,NoModAware2,Dr. Hart killed our pet.,NoModAware4,She loves playful giraffes.,ModAware2,Dopped He had this habit of telling you everything.
1742304762,32ab20bbeccaa48346503c065698e438,PennController,6,0,trials,NULL,DragDrop,experimental-trials,Drag,I put my angry foot in the cool water.,1742304442468,207112,33,2,1,Awareness,Ben made another happy announcement on March 28.,ModAware2,I e-mailed your assistant earlier this morning .,NoModAware4,He had this habit of telling you everything.,NoModAware2,Dignitaries condemn the rebellious act.,ModAware4,I put my angry foot in the cool water.,ModAware4,Jane calls the bluff. ,NoModAware2,Dr. Hart killed our pet.,NoModAware4,She loves playful giraffes.,ModAware2,Dropped on (3%2C 8)
1742304762,32ab20bbeccaa48346503c065698e438,PennController,6,0,trials,NULL,DragDrop,experimental-trials,Drop,(3%2C 8),1742304443422,207112,33,2,1,Awareness,Ben made another happy announcement on March 28.,ModAware2,I e-mailed your assistant earlier this morning .,NoModAware4,He had this habit of telling you everything.,NoModAware2,Dignitaries condemn the rebellious act.,ModAware4,I put my angry foot in the cool water.,ModAware4,Jane calls the bluff. ,NoModAware2,Dr. Hart killed our pet.,NoModAware4,She loves playful giraffes.,ModAware2,Dopped I put my angry foot in the cool water.
